{"acc":0,"accuracy":0,"average_response_time":4585,"avg_rt":4585,"background":"white","bidi":"no","block_repeat":"10","canvas_backend":"legacy","clock_backend":"legacy","color_backend":"legacy","compensation":0,"coordinates":"uniform","correct":"undefined","count_ITI":1,"count_block_begin":0,"count_block_loop":0,"count_block_procedure":0,"count_end_of_experiment":0,"count_experiment":0,"count_fb_skip":1,"count_feedback":1,"count_fixation":1,"count_instructie":0,"count_inter_trial":1,"count_keyboard_resp":1,"count_logger":1,"count_osweb":0,"count_reproduction":1,"count_task_loop":0,"count_task_procedure":0,"count_trial_loop":0,"count_trial_procedure":1,"datetime":"Mon Jun 01 2020 15:42:56 GMT+0200 (Central European Summer Time)","delay_ITI":1661,"description":"The main experiment item","disable_garbage_collection":"yes","empty_column":"","experiment_path":"/Volumes/GoogleDrive/My Drive/scholieren_academie/1_sec","font_bold":"no","font_family":"serif","font_italic":"no","font_size":18,"font_underline":"no","foreground":"black","form_clicks":"no","fullscreen":"no","height":768,"keyboard_backend":"legacy","mouse_backend":"legacy","opensesame_codename":"osweb","opensesame_version":"1.3.3","practice":"yes","response":"space","response_fb_skip":"space","response_instructie":"space","response_keyboard_resp":"space","response_time":4585,"response_time_fb_skip":4585,"response_time_instructie":5864,"response_time_keyboard_resp":1537,"round_decimals":2,"rt":"0","sampler_backend":"legacy","sessionid":1591018986772,"sound_buf_size":1024,"sound_channels":2,"sound_freq":48000,"sound_sample_size":-16,"start":"experiment","subject_nr":0,"subject_parity":"even","time_ITI":12807,"time_block_loop":5929,"time_fb_skip":16554,"time_feedback":16553,"time_fixation":14479,"time_instructie":35,"time_inter_trial":12807,"time_keyboard_resp":14996,"time_logger":21141,"time_reproduction":14996,"time_task_loop":35,"time_trial_loop":5929,"title":"1_sec","total_correct":0,"total_response_time":4585,"total_responses":1,"uniform_coordinates":"yes","width":1024,"studyId":"12","studyTitle":"1_sec","batchId":"12","batchTitle":"Default","componentId":"12","componentPos":1,"componentTitle":"OSWeb experiment","workerId":"105","studyResultId":"104","componentResultId":"102","groupResultId":"null","groupMemberId":null},
{"acc":0,"accuracy":0,"average_response_time":2383,"avg_rt":2383,"background":"white","bidi":"no","block_repeat":"10","canvas_backend":"legacy","clock_backend":"legacy","color_backend":"legacy","compensation":0,"coordinates":"uniform","correct":"undefined","count_ITI":2,"count_block_begin":0,"count_block_loop":0,"count_block_procedure":0,"count_end_of_experiment":0,"count_experiment":0,"count_fb_skip":2,"count_feedback":2,"count_fixation":2,"count_instructie":0,"count_inter_trial":2,"count_keyboard_resp":2,"count_logger":2,"count_osweb":0,"count_reproduction":2,"count_task_loop":0,"count_task_procedure":0,"count_trial_loop":0,"count_trial_procedure":2,"datetime":"Mon Jun 01 2020 15:42:56 GMT+0200 (Central European Summer Time)","delay_ITI":1339,"description":"The main experiment item","disable_garbage_collection":"yes","empty_column":"","experiment_path":"/Volumes/GoogleDrive/My Drive/scholieren_academie/1_sec","font_bold":"no","font_family":"serif","font_italic":"no","font_size":18,"font_underline":"no","foreground":"black","form_clicks":"no","fullscreen":"no","height":768,"keyboard_backend":"legacy","mouse_backend":"legacy","opensesame_codename":"osweb","opensesame_version":"1.3.3","practice":"yes","response":"space","response_fb_skip":"space","response_instructie":"space","response_keyboard_resp":"space","response_time":2383,"response_time_fb_skip":2383,"response_time_instructie":5864,"response_time_keyboard_resp":1446,"round_decimals":2,"rt":"0","sampler_backend":"legacy","sessionid":1591018986772,"sound_buf_size":1024,"sound_channels":2,"sound_freq":48000,"sound_sample_size":-16,"start":"experiment","subject_nr":0,"subject_parity":"even","time_ITI":21172,"time_block_loop":5929,"time_fb_skip":24509,"time_feedback":24508,"time_fixation":22527,"time_instructie":35,"time_inter_trial":21171,"time_keyboard_resp":23043,"time_logger":26906,"time_reproduction":23043,"time_task_loop":35,"time_trial_loop":5929,"title":"1_sec","total_correct":0,"total_response_time":2383,"total_responses":1,"uniform_coordinates":"yes","width":1024,"studyId":"12","studyTitle":"1_sec","batchId":"12","batchTitle":"Default","componentId":"12","componentPos":1,"componentTitle":"OSWeb experiment","workerId":"105","studyResultId":"104","componentResultId":"102","groupResultId":"null","groupMemberId":null},
{"acc":0,"accuracy":0,"average_response_time":2005,"avg_rt":2005,"background":"white","bidi":"no","block_repeat":"10","canvas_backend":"legacy","clock_backend":"legacy","color_backend":"legacy","compensation":0,"coordinates":"uniform","correct":"undefined","count_ITI":3,"count_block_begin":0,"count_block_loop":0,"count_block_procedure":0,"count_end_of_experiment":0,"count_experiment":0,"count_fb_skip":3,"count_feedback":3,"count_fixation":3,"count_instructie":0,"count_inter_trial":3,"count_keyboard_resp":3,"count_logger":3,"count_osweb":0,"count_reproduction":3,"count_task_loop":0,"count_task_procedure":0,"count_trial_loop":0,"count_trial_procedure":3,"datetime":"Mon Jun 01 2020 15:42:56 GMT+0200 (Central European Summer Time)","delay_ITI":1386,"description":"The main experiment item","disable_garbage_collection":"yes","empty_column":"","experiment_path":"/Volumes/GoogleDrive/My Drive/scholieren_academie/1_sec","font_bold":"no","font_family":"serif","font_italic":"no","font_size":18,"font_underline":"no","foreground":"black","form_clicks":"no","fullscreen":"no","height":768,"keyboard_backend":"legacy","mouse_backend":"legacy","opensesame_codename":"osweb","opensesame_version":"1.3.3","practice":"yes","response":"space","response_fb_skip":"space","response_instructie":"space","response_keyboard_resp":"space","response_time":2005,"response_time_fb_skip":2005,"response_time_instructie":5864,"response_time_keyboard_resp":878,"round_decimals":2,"rt":"0","sampler_backend":"legacy","sessionid":1591018986772,"sound_buf_size":1024,"sound_channels":2,"sound_freq":48000,"sound_sample_size":-16,"start":"experiment","subject_nr":0,"subject_parity":"even","time_ITI":26936,"time_block_loop":5929,"time_fb_skip":29747,"time_feedback":29747,"time_fixation":28325,"time_instructie":35,"time_inter_trial":26935,"time_keyboard_resp":28844,"time_logger":31754,"time_reproduction":28843,"time_task_loop":35,"time_trial_loop":5929,"title":"1_sec","total_correct":0,"total_response_time":2005,"total_responses":1,"uniform_coordinates":"yes","width":1024,"studyId":"12","studyTitle":"1_sec","batchId":"12","batchTitle":"Default","componentId":"12","componentPos":1,"componentTitle":"OSWeb experiment","workerId":"105","studyResultId":"104","componentResultId":"102","groupResultId":"null","groupMemberId":null},
{"acc":0,"accuracy":0,"average_response_time":4010,"avg_rt":4010,"background":"white","bidi":"no","block_repeat":"10","canvas_backend":"legacy","clock_backend":"legacy","color_backend":"legacy","compensation":0,"coordinates":"uniform","correct":"undefined","count_ITI":4,"count_block_begin":0,"count_block_loop":0,"count_block_procedure":0,"count_end_of_experiment":0,"count_experiment":0,"count_fb_skip":4,"count_feedback":4,"count_fixation":4,"count_instructie":0,"count_inter_trial":4,"count_keyboard_resp":4,"count_logger":4,"count_osweb":0,"count_reproduction":4,"count_task_loop":0,"count_task_procedure":0,"count_trial_loop":0,"count_trial_procedure":4,"datetime":"Mon Jun 01 2020 15:42:56 GMT+0200 (Central European Summer Time)","delay_ITI":1159,"description":"The main experiment item","disable_garbage_collection":"yes","empty_column":"","experiment_path":"/Volumes/GoogleDrive/My Drive/scholieren_academie/1_sec","font_bold":"no","font_family":"serif","font_italic":"no","font_size":18,"font_underline":"no","foreground":"black","form_clicks":"no","fullscreen":"no","height":768,"keyboard_backend":"legacy","mouse_backend":"legacy","opensesame_codename":"osweb","opensesame_version":"1.3.3","practice":"yes","response":"space","response_fb_skip":"space","response_instructie":"space","response_keyboard_resp":"space","response_time":4010,"response_time_fb_skip":4010,"response_time_instructie":5864,"response_time_keyboard_resp":1002,"round_decimals":2,"rt":"0","sampler_backend":"legacy","sessionid":1591018986772,"sound_buf_size":1024,"sound_channels":2,"sound_freq":48000,"sound_sample_size":-16,"start":"experiment","subject_nr":0,"subject_parity":"even","time_ITI":31781,"time_block_loop":5929,"time_fb_skip":34505,"time_feedback":34505,"time_fixation":32956,"time_instructie":35,"time_inter_trial":31781,"time_keyboard_resp":33472,"time_logger":38519,"time_reproduction":33472,"time_task_loop":35,"time_trial_loop":5929,"title":"1_sec","total_correct":0,"total_response_time":4010,"total_responses":1,"uniform_coordinates":"yes","width":1024,"studyId":"12","studyTitle":"1_sec","batchId":"12","batchTitle":"Default","componentId":"12","componentPos":1,"componentTitle":"OSWeb experiment","workerId":"105","studyResultId":"104","componentResultId":"102","groupResultId":"null","groupMemberId":null},
{"acc":0,"accuracy":0,"average_response_time":1539,"avg_rt":1539,"background":"white","bidi":"no","block_repeat":"10","canvas_backend":"legacy","clock_backend":"legacy","color_backend":"legacy","compensation":0,"coordinates":"uniform","correct":"undefined","count_ITI":5,"count_block_begin":0,"count_block_loop":0,"count_block_procedure":0,"count_end_of_experiment":0,"count_experiment":0,"count_fb_skip":5,"count_feedback":5,"count_fixation":5,"count_instructie":0,"count_inter_trial":5,"count_keyboard_resp":5,"count_logger":5,"count_osweb":0,"count_reproduction":5,"count_task_loop":0,"count_task_procedure":0,"count_trial_loop":0,"count_trial_procedure":5,"datetime":"Mon Jun 01 2020 15:42:56 GMT+0200 (Central European Summer Time)","delay_ITI":1694,"description":"The main experiment item","disable_garbage_collection":"yes","empty_column":"","experiment_path":"/Volumes/GoogleDrive/My Drive/scholieren_academie/1_sec","font_bold":"no","font_family":"serif","font_italic":"no","font_size":18,"font_underline":"no","foreground":"black","form_clicks":"no","fullscreen":"no","height":768,"keyboard_backend":"legacy","mouse_backend":"legacy","opensesame_codename":"osweb","opensesame_version":"1.3.3","practice":"yes","response":"space","response_fb_skip":"space","response_instructie":"space","response_keyboard_resp":"space","response_time":1539,"response_time_fb_skip":1539,"response_time_instructie":5864,"response_time_keyboard_resp":373,"round_decimals":2,"rt":"0","sampler_backend":"legacy","sessionid":1591018986772,"sound_buf_size":1024,"sound_channels":2,"sound_freq":48000,"sound_sample_size":-16,"start":"experiment","subject_nr":0,"subject_parity":"even","time_ITI":38550,"time_block_loop":5929,"time_fb_skip":41169,"time_feedback":41169,"time_fixation":40254,"time_instructie":35,"time_inter_trial":38550,"time_keyboard_resp":40770,"time_logger":42718,"time_reproduction":40770,"time_task_loop":35,"time_trial_loop":5929,"title":"1_sec","total_correct":0,"total_response_time":1539,"total_responses":1,"uniform_coordinates":"yes","width":1024,"studyId":"12","studyTitle":"1_sec","batchId":"12","batchTitle":"Default","componentId":"12","componentPos":1,"componentTitle":"OSWeb experiment","workerId":"105","studyResultId":"104","componentResultId":"102","groupResultId":"null","groupMemberId":null},
{"acc":0,"accuracy":0,"average_response_time":1618,"avg_rt":1618,"background":"white","bidi":"no","block_repeat":"10","canvas_backend":"legacy","clock_backend":"legacy","color_backend":"legacy","compensation":0,"coordinates":"uniform","correct":"undefined","count_ITI":6,"count_block_begin":0,"count_block_loop":0,"count_block_procedure":0,"count_end_of_experiment":0,"count_experiment":0,"count_fb_skip":6,"count_feedback":6,"count_fixation":6,"count_instructie":0,"count_inter_trial":6,"count_keyboard_resp":6,"count_logger":6,"count_osweb":0,"count_reproduction":6,"count_task_loop":0,"count_task_procedure":0,"count_trial_loop":0,"count_trial_procedure":6,"datetime":"Mon Jun 01 2020 15:42:56 GMT+0200 (Central European Summer Time)","delay_ITI":1951,"description":"The main experiment item","disable_garbage_collection":"yes","empty_column":"","experiment_path":"/Volumes/GoogleDrive/My Drive/scholieren_academie/1_sec","font_bold":"no","font_family":"serif","font_italic":"no","font_size":18,"font_underline":"no","foreground":"black","form_clicks":"no","fullscreen":"no","height":768,"keyboard_backend":"legacy","mouse_backend":"legacy","opensesame_codename":"osweb","opensesame_version":"1.3.3","practice":"yes","response":"space","response_fb_skip":"space","response_instructie":"space","response_keyboard_resp":"space","response_time":1618,"response_time_fb_skip":1618,"response_time_instructie":5864,"response_time_keyboard_resp":1178,"round_decimals":2,"rt":"0","sampler_backend":"legacy","sessionid":1591018986772,"sound_buf_size":1024,"sound_channels":2,"sound_freq":48000,"sound_sample_size":-16,"start":"experiment","subject_nr":0,"subject_parity":"even","time_ITI":42746,"time_block_loop":5929,"time_fb_skip":46418,"time_feedback":46418,"time_fixation":44702,"time_instructie":35,"time_inter_trial":42746,"time_keyboard_resp":45219,"time_logger":48050,"time_reproduction":45219,"time_task_loop":35,"time_trial_loop":5929,"title":"1_sec","total_correct":0,"total_response_time":1618,"total_responses":1,"uniform_coordinates":"yes","width":1024,"studyId":"12","studyTitle":"1_sec","batchId":"12","batchTitle":"Default","componentId":"12","componentPos":1,"componentTitle":"OSWeb experiment","workerId":"105","studyResultId":"104","componentResultId":"102","groupResultId":"null","groupMemberId":null},
{"acc":0,"accuracy":0,"average_response_time":1098,"avg_rt":1098,"background":"white","bidi":"no","block_repeat":"10","canvas_backend":"legacy","clock_backend":"legacy","color_backend":"legacy","compensation":0,"coordinates":"uniform","correct":"undefined","count_ITI":7,"count_block_begin":0,"count_block_loop":0,"count_block_procedure":0,"count_end_of_experiment":0,"count_experiment":0,"count_fb_skip":7,"count_feedback":7,"count_fixation":7,"count_instructie":0,"count_inter_trial":7,"count_keyboard_resp":7,"count_logger":7,"count_osweb":0,"count_reproduction":7,"count_task_loop":0,"count_task_procedure":0,"count_trial_loop":0,"count_trial_procedure":7,"datetime":"Mon Jun 01 2020 15:42:56 GMT+0200 (Central European Summer Time)","delay_ITI":1581,"description":"The main experiment item","disable_garbage_collection":"yes","empty_column":"","experiment_path":"/Volumes/GoogleDrive/My Drive/scholieren_academie/1_sec","font_bold":"no","font_family":"serif","font_italic":"no","font_size":18,"font_underline":"no","foreground":"black","form_clicks":"no","fullscreen":"no","height":768,"keyboard_backend":"legacy","mouse_backend":"legacy","opensesame_codename":"osweb","opensesame_version":"1.3.3","practice":"yes","response":"space","response_fb_skip":"space","response_instructie":"space","response_keyboard_resp":"space","response_time":1098,"response_time_fb_skip":1098,"response_time_instructie":5864,"response_time_keyboard_resp":1297,"round_decimals":2,"rt":"0","sampler_backend":"legacy","sessionid":1591018986772,"sound_buf_size":1024,"sound_channels":2,"sound_freq":48000,"sound_sample_size":-16,"start":"experiment","subject_nr":0,"subject_parity":"even","time_ITI":48076,"time_block_loop":5929,"time_fb_skip":51492,"time_feedback":51492,"time_fixation":49667,"time_instructie":35,"time_inter_trial":48076,"time_keyboard_resp":50184,"time_logger":52598,"time_reproduction":50184,"time_task_loop":35,"time_trial_loop":5929,"title":"1_sec","total_correct":0,"total_response_time":1098,"total_responses":1,"uniform_coordinates":"yes","width":1024,"studyId":"12","studyTitle":"1_sec","batchId":"12","batchTitle":"Default","componentId":"12","componentPos":1,"componentTitle":"OSWeb experiment","workerId":"105","studyResultId":"104","componentResultId":"102","groupResultId":"null","groupMemberId":null},
{"acc":0,"accuracy":0,"average_response_time":1042,"avg_rt":1042,"background":"white","bidi":"no","block_repeat":"10","canvas_backend":"legacy","clock_backend":"legacy","color_backend":"legacy","compensation":0,"coordinates":"uniform","correct":"undefined","count_ITI":8,"count_block_begin":0,"count_block_loop":0,"count_block_procedure":0,"count_end_of_experiment":0,"count_experiment":0,"count_fb_skip":8,"count_feedback":8,"count_fixation":8,"count_instructie":0,"count_inter_trial":8,"count_keyboard_resp":8,"count_logger":8,"count_osweb":0,"count_reproduction":8,"count_task_loop":0,"count_task_procedure":0,"count_trial_loop":0,"count_trial_procedure":8,"datetime":"Mon Jun 01 2020 15:42:56 GMT+0200 (Central European Summer Time)","delay_ITI":1006,"description":"The main experiment item","disable_garbage_collection":"yes","empty_column":"","experiment_path":"/Volumes/GoogleDrive/My Drive/scholieren_academie/1_sec","font_bold":"no","font_family":"serif","font_italic":"no","font_size":18,"font_underline":"no","foreground":"black","form_clicks":"no","fullscreen":"no","height":768,"keyboard_backend":"legacy","mouse_backend":"legacy","opensesame_codename":"osweb","opensesame_version":"1.3.3","practice":"yes","response":"space","response_fb_skip":"space","response_instructie":"space","response_keyboard_resp":"space","response_time":1042,"response_time_fb_skip":1042,"response_time_instructie":5864,"response_time_keyboard_resp":959,"round_decimals":2,"rt":"0","sampler_backend":"legacy","sessionid":1591018986772,"sound_buf_size":1024,"sound_channels":2,"sound_freq":48000,"sound_sample_size":-16,"start":"experiment","subject_nr":0,"subject_parity":"even","time_ITI":52627,"time_block_loop":5929,"time_fb_skip":55147,"time_feedback":55147,"time_fixation":53648,"time_instructie":35,"time_inter_trial":52627,"time_keyboard_resp":54166,"time_logger":56197,"time_reproduction":54166,"time_task_loop":35,"time_trial_loop":5929,"title":"1_sec","total_correct":0,"total_response_time":1042,"total_responses":1,"uniform_coordinates":"yes","width":1024,"studyId":"12","studyTitle":"1_sec","batchId":"12","batchTitle":"Default","componentId":"12","componentPos":1,"componentTitle":"OSWeb experiment","workerId":"105","studyResultId":"104","componentResultId":"102","groupResultId":"null","groupMemberId":null},
{"acc":0,"accuracy":0,"average_response_time":1460,"avg_rt":1460,"background":"white","bidi":"no","block_repeat":"10","canvas_backend":"legacy","clock_backend":"legacy","color_backend":"legacy","compensation":0,"coordinates":"uniform","correct":"undefined","count_ITI":9,"count_block_begin":0,"count_block_loop":0,"count_block_procedure":0,"count_end_of_experiment":0,"count_experiment":0,"count_fb_skip":9,"count_feedback":9,"count_fixation":9,"count_instructie":0,"count_inter_trial":9,"count_keyboard_resp":9,"count_logger":9,"count_osweb":0,"count_reproduction":9,"count_task_loop":0,"count_task_procedure":0,"count_trial_loop":0,"count_trial_procedure":9,"datetime":"Mon Jun 01 2020 15:42:56 GMT+0200 (Central European Summer Time)","delay_ITI":1633,"description":"The main experiment item","disable_garbage_collection":"yes","empty_column":"","experiment_path":"/Volumes/GoogleDrive/My Drive/scholieren_academie/1_sec","font_bold":"no","font_family":"serif","font_italic":"no","font_size":18,"font_underline":"no","foreground":"black","form_clicks":"no","fullscreen":"no","height":768,"keyboard_backend":"legacy","mouse_backend":"legacy","opensesame_codename":"osweb","opensesame_version":"1.3.3","practice":"yes","response":"space","response_fb_skip":"space","response_instructie":"space","response_keyboard_resp":"space","response_time":1460,"response_time_fb_skip":1460,"response_time_instructie":5864,"response_time_keyboard_resp":954,"round_decimals":2,"rt":"0","sampler_backend":"legacy","sessionid":1591018986772,"sound_buf_size":1024,"sound_channels":2,"sound_freq":48000,"sound_sample_size":-16,"start":"experiment","subject_nr":0,"subject_parity":"even","time_ITI":56225,"time_block_loop":5929,"time_fb_skip":59353,"time_feedback":59353,"time_fixation":57865,"time_instructie":35,"time_inter_trial":56225,"time_keyboard_resp":58384,"time_logger":60829,"time_reproduction":58383,"time_task_loop":35,"time_trial_loop":5929,"title":"1_sec","total_correct":0,"total_response_time":1460,"total_responses":1,"uniform_coordinates":"yes","width":1024,"studyId":"12","studyTitle":"1_sec","batchId":"12","batchTitle":"Default","componentId":"12","componentPos":1,"componentTitle":"OSWeb experiment","workerId":"105","studyResultId":"104","componentResultId":"102","groupResultId":"null","groupMemberId":null},
{"acc":0,"accuracy":0,"average_response_time":1167,"avg_rt":1167,"background":"white","bidi":"no","block_repeat":"50","canvas_backend":"legacy","clock_backend":"legacy","color_backend":"legacy","compensation":0,"coordinates":"uniform","correct":"undefined","count_ITI":10,"count_block_begin":1,"count_block_loop":0,"count_block_procedure":1,"count_end_of_experiment":0,"count_experiment":0,"count_fb_skip":10,"count_feedback":9,"count_fixation":10,"count_instructie":0,"count_inter_trial":10,"count_keyboard_resp":10,"count_logger":10,"count_osweb":0,"count_reproduction":10,"count_task_loop":0,"count_task_procedure":0,"count_trial_loop":1,"count_trial_procedure":10,"datetime":"Mon Jun 01 2020 15:42:56 GMT+0200 (Central European Summer Time)","delay_ITI":1543,"description":"The main experiment item","disable_garbage_collection":"yes","empty_column":"","experiment_path":"/Volumes/GoogleDrive/My Drive/scholieren_academie/1_sec","font_bold":"no","font_family":"serif","font_italic":"no","font_size":18,"font_underline":"no","foreground":"black","form_clicks":"no","fullscreen":"no","height":768,"keyboard_backend":"legacy","mouse_backend":"legacy","opensesame_codename":"osweb","opensesame_version":"1.3.3","practice":"no","response":"space","response_block_begin":"space","response_fb_skip":"space","response_instructie":"space","response_keyboard_resp":"space","response_time":874,"response_time_block_begin":162698,"response_time_fb_skip":1460,"response_time_instructie":5864,"response_time_keyboard_resp":874,"round_decimals":2,"rt":"0","sampler_backend":"legacy","sessionid":1591018986772,"sound_buf_size":1024,"sound_channels":2,"sound_freq":48000,"sound_sample_size":-16,"start":"experiment","subject_nr":0,"subject_parity":"even","time_ITI":223567,"time_block_begin":60852,"time_block_loop":5929,"time_fb_skip":59353,"time_feedback":59353,"time_fixation":225112,"time_instructie":35,"time_inter_trial":223567,"time_keyboard_resp":225629,"time_logger":226511,"time_reproduction":225629,"time_task_loop":35,"time_trial_loop":60852,"title":"1_sec","total_correct":0,"total_response_time":2334,"total_responses":2,"uniform_coordinates":"yes","width":1024,"studyId":"12","studyTitle":"1_sec","batchId":"12","batchTitle":"Default","componentId":"12","componentPos":1,"componentTitle":"OSWeb experiment","workerId":"105","studyResultId":"104","componentResultId":"102","groupResultId":"null","groupMemberId":null},
{"acc":0,"accuracy":0,"average_response_time":1063,"avg_rt":1063,"background":"white","bidi":"no","block_repeat":"50","canvas_backend":"legacy","clock_backend":"legacy","color_backend":"legacy","compensation":0,"coordinates":"uniform","correct":"undefined","count_ITI":11,"count_block_begin":1,"count_block_loop":0,"count_block_procedure":1,"count_end_of_experiment":0,"count_experiment":0,"count_fb_skip":11,"count_feedback":9,"count_fixation":11,"count_instructie":0,"count_inter_trial":11,"count_keyboard_resp":11,"count_logger":11,"count_osweb":0,"count_reproduction":11,"count_task_loop":0,"count_task_procedure":0,"count_trial_loop":1,"count_trial_procedure":11,"datetime":"Mon Jun 01 2020 15:42:56 GMT+0200 (Central European Summer Time)","delay_ITI":1138,"description":"The main experiment item","disable_garbage_collection":"yes","empty_column":"","experiment_path":"/Volumes/GoogleDrive/My Drive/scholieren_academie/1_sec","font_bold":"no","font_family":"serif","font_italic":"no","font_size":18,"font_underline":"no","foreground":"black","form_clicks":"no","fullscreen":"no","height":768,"keyboard_backend":"legacy","mouse_backend":"legacy","opensesame_codename":"osweb","opensesame_version":"1.3.3","practice":"no","response":"space","response_block_begin":"space","response_fb_skip":"space","response_instructie":"space","response_keyboard_resp":"space","response_time":854,"response_time_block_begin":162698,"response_time_fb_skip":1460,"response_time_instructie":5864,"response_time_keyboard_resp":854,"round_decimals":2,"rt":"0","sampler_backend":"legacy","sessionid":1591018986772,"sound_buf_size":1024,"sound_channels":2,"sound_freq":48000,"sound_sample_size":-16,"start":"experiment","subject_nr":0,"subject_parity":"even","time_ITI":226516,"time_block_begin":60852,"time_block_loop":5929,"time_fb_skip":59353,"time_feedback":59353,"time_fixation":227663,"time_instructie":35,"time_inter_trial":226516,"time_keyboard_resp":228178,"time_logger":229044,"time_reproduction":228178,"time_task_loop":35,"time_trial_loop":60852,"title":"1_sec","total_correct":0,"total_response_time":3188,"total_responses":3,"uniform_coordinates":"yes","width":1024,"studyId":"12","studyTitle":"1_sec","batchId":"12","batchTitle":"Default","componentId":"12","componentPos":1,"componentTitle":"OSWeb experiment","workerId":"105","studyResultId":"104","componentResultId":"102","groupResultId":"null","groupMemberId":null},
{"acc":0,"accuracy":0,"average_response_time":981,"avg_rt":981,"background":"white","bidi":"no","block_repeat":"50","canvas_backend":"legacy","clock_backend":"legacy","color_backend":"legacy","compensation":0,"coordinates":"uniform","correct":"undefined","count_ITI":12,"count_block_begin":1,"count_block_loop":0,"count_block_procedure":1,"count_end_of_experiment":0,"count_experiment":0,"count_fb_skip":12,"count_feedback":9,"count_fixation":12,"count_instructie":0,"count_inter_trial":12,"count_keyboard_resp":12,"count_logger":12,"count_osweb":0,"count_reproduction":12,"count_task_loop":0,"count_task_procedure":0,"count_trial_loop":1,"count_trial_procedure":12,"datetime":"Mon Jun 01 2020 15:42:56 GMT+0200 (Central European Summer Time)","delay_ITI":1734,"description":"The main experiment item","disable_garbage_collection":"yes","empty_column":"","experiment_path":"/Volumes/GoogleDrive/My Drive/scholieren_academie/1_sec","font_bold":"no","font_family":"serif","font_italic":"no","font_size":18,"font_underline":"no","foreground":"black","form_clicks":"no","fullscreen":"no","height":768,"keyboard_backend":"legacy","mouse_backend":"legacy","opensesame_codename":"osweb","opensesame_version":"1.3.3","practice":"no","response":"space","response_block_begin":"space","response_fb_skip":"space","response_instructie":"space","response_keyboard_resp":"space","response_time":735,"response_time_block_begin":162698,"response_time_fb_skip":1460,"response_time_instructie":5864,"response_time_keyboard_resp":735,"round_decimals":2,"rt":"0","sampler_backend":"legacy","sessionid":1591018986772,"sound_buf_size":1024,"sound_channels":2,"sound_freq":48000,"sound_sample_size":-16,"start":"experiment","subject_nr":0,"subject_parity":"even","time_ITI":229058,"time_block_begin":60852,"time_block_loop":5929,"time_fb_skip":59353,"time_feedback":59353,"time_fixation":230794,"time_instructie":35,"time_inter_trial":229057,"time_keyboard_resp":231311,"time_logger":232059,"time_reproduction":231311,"time_task_loop":35,"time_trial_loop":60852,"title":"1_sec","total_correct":0,"total_response_time":3923,"total_responses":4,"uniform_coordinates":"yes","width":1024,"studyId":"12","studyTitle":"1_sec","batchId":"12","batchTitle":"Default","componentId":"12","componentPos":1,"componentTitle":"OSWeb experiment","workerId":"105","studyResultId":"104","componentResultId":"102","groupResultId":"null","groupMemberId":null},
{"acc":0,"accuracy":0,"average_response_time":919,"avg_rt":919,"background":"white","bidi":"no","block_repeat":"50","canvas_backend":"legacy","clock_backend":"legacy","color_backend":"legacy","compensation":0,"coordinates":"uniform","correct":"undefined","count_ITI":13,"count_block_begin":1,"count_block_loop":0,"count_block_procedure":1,"count_end_of_experiment":0,"count_experiment":0,"count_fb_skip":13,"count_feedback":9,"count_fixation":13,"count_instructie":0,"count_inter_trial":13,"count_keyboard_resp":13,"count_logger":13,"count_osweb":0,"count_reproduction":13,"count_task_loop":0,"count_task_procedure":0,"count_trial_loop":1,"count_trial_procedure":13,"datetime":"Mon Jun 01 2020 15:42:56 GMT+0200 (Central European Summer Time)","delay_ITI":1067,"description":"The main experiment item","disable_garbage_collection":"yes","empty_column":"","experiment_path":"/Volumes/GoogleDrive/My Drive/scholieren_academie/1_sec","font_bold":"no","font_family":"serif","font_italic":"no","font_size":18,"font_underline":"no","foreground":"black","form_clicks":"no","fullscreen":"no","height":768,"keyboard_backend":"legacy","mouse_backend":"legacy","opensesame_codename":"osweb","opensesame_version":"1.3.3","practice":"no","response":"space","response_block_begin":"space","response_fb_skip":"space","response_instructie":"space","response_keyboard_resp":"space","response_time":671,"response_time_block_begin":162698,"response_time_fb_skip":1460,"response_time_instructie":5864,"response_time_keyboard_resp":671,"round_decimals":2,"rt":"0","sampler_backend":"legacy","sessionid":1591018986772,"sound_buf_size":1024,"sound_channels":2,"sound_freq":48000,"sound_sample_size":-16,"start":"experiment","subject_nr":0,"subject_parity":"even","time_ITI":232066,"time_block_begin":60852,"time_block_loop":5929,"time_fb_skip":59353,"time_feedback":59353,"time_fixation":233143,"time_instructie":35,"time_inter_trial":232066,"time_keyboard_resp":233660,"time_logger":234341,"time_reproduction":233659,"time_task_loop":35,"time_trial_loop":60852,"title":"1_sec","total_correct":0,"total_response_time":4594,"total_responses":5,"uniform_coordinates":"yes","width":1024,"studyId":"12","studyTitle":"1_sec","batchId":"12","batchTitle":"Default","componentId":"12","componentPos":1,"componentTitle":"OSWeb experiment","workerId":"105","studyResultId":"104","componentResultId":"102","groupResultId":"null","groupMemberId":null},
{"acc":0,"accuracy":0,"average_response_time":885,"avg_rt":885,"background":"white","bidi":"no","block_repeat":"50","canvas_backend":"legacy","clock_backend":"legacy","color_backend":"legacy","compensation":0,"coordinates":"uniform","correct":"undefined","count_ITI":14,"count_block_begin":1,"count_block_loop":0,"count_block_procedure":1,"count_end_of_experiment":0,"count_experiment":0,"count_fb_skip":14,"count_feedback":9,"count_fixation":14,"count_instructie":0,"count_inter_trial":14,"count_keyboard_resp":14,"count_logger":14,"count_osweb":0,"count_reproduction":14,"count_task_loop":0,"count_task_procedure":0,"count_trial_loop":1,"count_trial_procedure":14,"datetime":"Mon Jun 01 2020 15:42:56 GMT+0200 (Central European Summer Time)","delay_ITI":1004,"description":"The main experiment item","disable_garbage_collection":"yes","empty_column":"","experiment_path":"/Volumes/GoogleDrive/My Drive/scholieren_academie/1_sec","font_bold":"no","font_family":"serif","font_italic":"no","font_size":18,"font_underline":"no","foreground":"black","form_clicks":"no","fullscreen":"no","height":768,"keyboard_backend":"legacy","mouse_backend":"legacy","opensesame_codename":"osweb","opensesame_version":"1.3.3","practice":"no","response":"space","response_block_begin":"space","response_fb_skip":"space","response_instructie":"space","response_keyboard_resp":"space","response_time":713,"response_time_block_begin":162698,"response_time_fb_skip":1460,"response_time_instructie":5864,"response_time_keyboard_resp":713,"round_decimals":2,"rt":"0","sampler_backend":"legacy","sessionid":1591018986772,"sound_buf_size":1024,"sound_channels":2,"sound_freq":48000,"sound_sample_size":-16,"start":"experiment","subject_nr":0,"subject_parity":"even","time_ITI":234344,"time_block_begin":60852,"time_block_loop":5929,"time_fb_skip":59353,"time_feedback":59353,"time_fixation":235359,"time_instructie":35,"time_inter_trial":234344,"time_keyboard_resp":235874,"time_logger":236591,"time_reproduction":235874,"time_task_loop":35,"time_trial_loop":60852,"title":"1_sec","total_correct":0,"total_response_time":5307,"total_responses":6,"uniform_coordinates":"yes","width":1024,"studyId":"12","studyTitle":"1_sec","batchId":"12","batchTitle":"Default","componentId":"12","componentPos":1,"componentTitle":"OSWeb experiment","workerId":"105","studyResultId":"104","componentResultId":"102","groupResultId":"null","groupMemberId":null},
{"acc":0,"accuracy":0,"average_response_time":862,"avg_rt":862,"background":"white","bidi":"no","block_repeat":"50","canvas_backend":"legacy","clock_backend":"legacy","color_backend":"legacy","compensation":0,"coordinates":"uniform","correct":"undefined","count_ITI":15,"count_block_begin":1,"count_block_loop":0,"count_block_procedure":1,"count_end_of_experiment":0,"count_experiment":0,"count_fb_skip":15,"count_feedback":9,"count_fixation":15,"count_instructie":0,"count_inter_trial":15,"count_keyboard_resp":15,"count_logger":15,"count_osweb":0,"count_reproduction":15,"count_task_loop":0,"count_task_procedure":0,"count_trial_loop":1,"count_trial_procedure":15,"datetime":"Mon Jun 01 2020 15:42:56 GMT+0200 (Central European Summer Time)","delay_ITI":1824,"description":"The main experiment item","disable_garbage_collection":"yes","empty_column":"","experiment_path":"/Volumes/GoogleDrive/My Drive/scholieren_academie/1_sec","font_bold":"no","font_family":"serif","font_italic":"no","font_size":18,"font_underline":"no","foreground":"black","form_clicks":"no","fullscreen":"no","height":768,"keyboard_backend":"legacy","mouse_backend":"legacy","opensesame_codename":"osweb","opensesame_version":"1.3.3","practice":"no","response":"space","response_block_begin":"space","response_fb_skip":"space","response_instructie":"space","response_keyboard_resp":"space","response_time":724,"response_time_block_begin":162698,"response_time_fb_skip":1460,"response_time_instructie":5864,"response_time_keyboard_resp":724,"round_decimals":2,"rt":"0","sampler_backend":"legacy","sessionid":1591018986772,"sound_buf_size":1024,"sound_channels":2,"sound_freq":48000,"sound_sample_size":-16,"start":"experiment","subject_nr":0,"subject_parity":"even","time_ITI":236601,"time_block_begin":60852,"time_block_loop":5929,"time_fb_skip":59353,"time_feedback":59353,"time_fixation":238441,"time_instructie":35,"time_inter_trial":236600,"time_keyboard_resp":238958,"time_logger":239690,"time_reproduction":238958,"time_task_loop":35,"time_trial_loop":60852,"title":"1_sec","total_correct":0,"total_response_time":6031,"total_responses":7,"uniform_coordinates":"yes","width":1024,"studyId":"12","studyTitle":"1_sec","batchId":"12","batchTitle":"Default","componentId":"12","componentPos":1,"componentTitle":"OSWeb experiment","workerId":"105","studyResultId":"104","componentResultId":"102","groupResultId":"null","groupMemberId":null},
{"acc":0,"accuracy":0,"average_response_time":850,"avg_rt":850,"background":"white","bidi":"no","block_repeat":"50","canvas_backend":"legacy","clock_backend":"legacy","color_backend":"legacy","compensation":0,"coordinates":"uniform","correct":"undefined","count_ITI":16,"count_block_begin":1,"count_block_loop":0,"count_block_procedure":1,"count_end_of_experiment":0,"count_experiment":0,"count_fb_skip":16,"count_feedback":9,"count_fixation":16,"count_instructie":0,"count_inter_trial":16,"count_keyboard_resp":16,"count_logger":16,"count_osweb":0,"count_reproduction":16,"count_task_loop":0,"count_task_procedure":0,"count_trial_loop":1,"count_trial_procedure":16,"datetime":"Mon Jun 01 2020 15:42:56 GMT+0200 (Central European Summer Time)","delay_ITI":1009,"description":"The main experiment item","disable_garbage_collection":"yes","empty_column":"","experiment_path":"/Volumes/GoogleDrive/My Drive/scholieren_academie/1_sec","font_bold":"no","font_family":"serif","font_italic":"no","font_size":18,"font_underline":"no","foreground":"black","form_clicks":"no","fullscreen":"no","height":768,"keyboard_backend":"legacy","mouse_backend":"legacy","opensesame_codename":"osweb","opensesame_version":"1.3.3","practice":"no","response":"space","response_block_begin":"space","response_fb_skip":"space","response_instructie":"space","response_keyboard_resp":"space","response_time":766,"response_time_block_begin":162698,"response_time_fb_skip":1460,"response_time_instructie":5864,"response_time_keyboard_resp":766,"round_decimals":2,"rt":"0","sampler_backend":"legacy","sessionid":1591018986772,"sound_buf_size":1024,"sound_channels":2,"sound_freq":48000,"sound_sample_size":-16,"start":"experiment","subject_nr":0,"subject_parity":"even","time_ITI":239697,"time_block_begin":60852,"time_block_loop":5929,"time_fb_skip":59353,"time_feedback":59353,"time_fixation":240724,"time_instructie":35,"time_inter_trial":239697,"time_keyboard_resp":241240,"time_logger":242023,"time_reproduction":241240,"time_task_loop":35,"time_trial_loop":60852,"title":"1_sec","total_correct":0,"total_response_time":6797,"total_responses":8,"uniform_coordinates":"yes","width":1024,"studyId":"12","studyTitle":"1_sec","batchId":"12","batchTitle":"Default","componentId":"12","componentPos":1,"componentTitle":"OSWeb experiment","workerId":"105","studyResultId":"104","componentResultId":"102","groupResultId":"null","groupMemberId":null},
{"acc":0,"accuracy":0,"average_response_time":802,"avg_rt":802,"background":"white","bidi":"no","block_repeat":"50","canvas_backend":"legacy","clock_backend":"legacy","color_backend":"legacy","compensation":0,"coordinates":"uniform","correct":"undefined","count_ITI":17,"count_block_begin":1,"count_block_loop":0,"count_block_procedure":1,"count_end_of_experiment":0,"count_experiment":0,"count_fb_skip":17,"count_feedback":9,"count_fixation":17,"count_instructie":0,"count_inter_trial":17,"count_keyboard_resp":17,"count_logger":17,"count_osweb":0,"count_reproduction":17,"count_task_loop":0,"count_task_procedure":0,"count_trial_loop":1,"count_trial_procedure":17,"datetime":"Mon Jun 01 2020 15:42:56 GMT+0200 (Central European Summer Time)","delay_ITI":1298,"description":"The main experiment item","disable_garbage_collection":"yes","empty_column":"","experiment_path":"/Volumes/GoogleDrive/My Drive/scholieren_academie/1_sec","font_bold":"no","font_family":"serif","font_italic":"no","font_size":18,"font_underline":"no","foreground":"black","form_clicks":"no","fullscreen":"no","height":768,"keyboard_backend":"legacy","mouse_backend":"legacy","opensesame_codename":"osweb","opensesame_version":"1.3.3","practice":"no","response":"space","response_block_begin":"space","response_fb_skip":"space","response_instructie":"space","response_keyboard_resp":"space","response_time":424,"response_time_block_begin":162698,"response_time_fb_skip":1460,"response_time_instructie":5864,"response_time_keyboard_resp":424,"round_decimals":2,"rt":"0","sampler_backend":"legacy","sessionid":1591018986772,"sound_buf_size":1024,"sound_channels":2,"sound_freq":48000,"sound_sample_size":-16,"start":"experiment","subject_nr":0,"subject_parity":"even","time_ITI":242029,"time_block_begin":60852,"time_block_loop":5929,"time_fb_skip":59353,"time_feedback":59353,"time_fixation":243340,"time_instructie":35,"time_inter_trial":242029,"time_keyboard_resp":243856,"time_logger":244289,"time_reproduction":243856,"time_task_loop":35,"time_trial_loop":60852,"title":"1_sec","total_correct":0,"total_response_time":7221,"total_responses":9,"uniform_coordinates":"yes","width":1024,"studyId":"12","studyTitle":"1_sec","batchId":"12","batchTitle":"Default","componentId":"12","componentPos":1,"componentTitle":"OSWeb experiment","workerId":"105","studyResultId":"104","componentResultId":"102","groupResultId":"null","groupMemberId":null},
{"acc":0,"accuracy":0,"average_response_time":784,"avg_rt":784,"background":"white","bidi":"no","block_repeat":"50","canvas_backend":"legacy","clock_backend":"legacy","color_backend":"legacy","compensation":0,"coordinates":"uniform","correct":"undefined","count_ITI":18,"count_block_begin":1,"count_block_loop":0,"count_block_procedure":1,"count_end_of_experiment":0,"count_experiment":0,"count_fb_skip":18,"count_feedback":9,"count_fixation":18,"count_instructie":0,"count_inter_trial":18,"count_keyboard_resp":18,"count_logger":18,"count_osweb":0,"count_reproduction":18,"count_task_loop":0,"count_task_procedure":0,"count_trial_loop":1,"count_trial_procedure":18,"datetime":"Mon Jun 01 2020 15:42:56 GMT+0200 (Central European Summer Time)","delay_ITI":1478,"description":"The main experiment item","disable_garbage_collection":"yes","empty_column":"","experiment_path":"/Volumes/GoogleDrive/My Drive/scholieren_academie/1_sec","font_bold":"no","font_family":"serif","font_italic":"no","font_size":18,"font_underline":"no","foreground":"black","form_clicks":"no","fullscreen":"no","height":768,"keyboard_backend":"legacy","mouse_backend":"legacy","opensesame_codename":"osweb","opensesame_version":"1.3.3","practice":"no","response":"space","response_block_begin":"space","response_fb_skip":"space","response_instructie":"space","response_keyboard_resp":"space","response_time":622,"response_time_block_begin":162698,"response_time_fb_skip":1460,"response_time_instructie":5864,"response_time_keyboard_resp":622,"round_decimals":2,"rt":"0","sampler_backend":"legacy","sessionid":1591018986772,"sound_buf_size":1024,"sound_channels":2,"sound_freq":48000,"sound_sample_size":-16,"start":"experiment","subject_nr":0,"subject_parity":"even","time_ITI":244297,"time_block_begin":60852,"time_block_loop":5929,"time_fb_skip":59353,"time_feedback":59353,"time_fixation":245789,"time_instructie":35,"time_inter_trial":244297,"time_keyboard_resp":246306,"time_logger":246937,"time_reproduction":246306,"time_task_loop":35,"time_trial_loop":60852,"title":"1_sec","total_correct":0,"total_response_time":7843,"total_responses":10,"uniform_coordinates":"yes","width":1024,"studyId":"12","studyTitle":"1_sec","batchId":"12","batchTitle":"Default","componentId":"12","componentPos":1,"componentTitle":"OSWeb experiment","workerId":"105","studyResultId":"104","componentResultId":"102","groupResultId":"null","groupMemberId":null},
{"acc":0,"accuracy":0,"average_response_time":773,"avg_rt":773,"background":"white","bidi":"no","block_repeat":"50","canvas_backend":"legacy","clock_backend":"legacy","color_backend":"legacy","compensation":0,"coordinates":"uniform","correct":"undefined","count_ITI":19,"count_block_begin":1,"count_block_loop":0,"count_block_procedure":1,"count_end_of_experiment":0,"count_experiment":0,"count_fb_skip":19,"count_feedback":9,"count_fixation":19,"count_instructie":0,"count_inter_trial":19,"count_keyboard_resp":19,"count_logger":19,"count_osweb":0,"count_reproduction":19,"count_task_loop":0,"count_task_procedure":0,"count_trial_loop":1,"count_trial_procedure":19,"datetime":"Mon Jun 01 2020 15:42:56 GMT+0200 (Central European Summer Time)","delay_ITI":1574,"description":"The main experiment item","disable_garbage_collection":"yes","empty_column":"","experiment_path":"/Volumes/GoogleDrive/My Drive/scholieren_academie/1_sec","font_bold":"no","font_family":"serif","font_italic":"no","font_size":18,"font_underline":"no","foreground":"black","form_clicks":"no","fullscreen":"no","height":768,"keyboard_backend":"legacy","mouse_backend":"legacy","opensesame_codename":"osweb","opensesame_version":"1.3.3","practice":"no","response":"space","response_block_begin":"space","response_fb_skip":"space","response_instructie":"space","response_keyboard_resp":"space","response_time":661,"response_time_block_begin":162698,"response_time_fb_skip":1460,"response_time_instructie":5864,"response_time_keyboard_resp":661,"round_decimals":2,"rt":"0","sampler_backend":"legacy","sessionid":1591018986772,"sound_buf_size":1024,"sound_channels":2,"sound_freq":48000,"sound_sample_size":-16,"start":"experiment","subject_nr":0,"subject_parity":"even","time_ITI":246939,"time_block_begin":60852,"time_block_loop":5929,"time_fb_skip":59353,"time_feedback":59353,"time_fixation":248521,"time_instructie":35,"time_inter_trial":246939,"time_keyboard_resp":249038,"time_logger":249703,"time_reproduction":249038,"time_task_loop":35,"time_trial_loop":60852,"title":"1_sec","total_correct":0,"total_response_time":8504,"total_responses":11,"uniform_coordinates":"yes","width":1024,"studyId":"12","studyTitle":"1_sec","batchId":"12","batchTitle":"Default","componentId":"12","componentPos":1,"componentTitle":"OSWeb experiment","workerId":"105","studyResultId":"104","componentResultId":"102","groupResultId":"null","groupMemberId":null},
{"acc":0,"accuracy":0,"average_response_time":759,"avg_rt":759,"background":"white","bidi":"no","block_repeat":"50","canvas_backend":"legacy","clock_backend":"legacy","color_backend":"legacy","compensation":0,"coordinates":"uniform","correct":"undefined","count_ITI":20,"count_block_begin":1,"count_block_loop":0,"count_block_procedure":1,"count_end_of_experiment":0,"count_experiment":0,"count_fb_skip":20,"count_feedback":9,"count_fixation":20,"count_instructie":0,"count_inter_trial":20,"count_keyboard_resp":20,"count_logger":20,"count_osweb":0,"count_reproduction":20,"count_task_loop":0,"count_task_procedure":0,"count_trial_loop":1,"count_trial_procedure":20,"datetime":"Mon Jun 01 2020 15:42:56 GMT+0200 (Central European Summer Time)","delay_ITI":1090,"description":"The main experiment item","disable_garbage_collection":"yes","empty_column":"","experiment_path":"/Volumes/GoogleDrive/My Drive/scholieren_academie/1_sec","font_bold":"no","font_family":"serif","font_italic":"no","font_size":18,"font_underline":"no","foreground":"black","form_clicks":"no","fullscreen":"no","height":768,"keyboard_backend":"legacy","mouse_backend":"legacy","opensesame_codename":"osweb","opensesame_version":"1.3.3","practice":"no","response":"space","response_block_begin":"space","response_fb_skip":"space","response_instructie":"space","response_keyboard_resp":"space","response_time":600,"response_time_block_begin":162698,"response_time_fb_skip":1460,"response_time_instructie":5864,"response_time_keyboard_resp":600,"round_decimals":2,"rt":"0","sampler_backend":"legacy","sessionid":1591018986772,"sound_buf_size":1024,"sound_channels":2,"sound_freq":48000,"sound_sample_size":-16,"start":"experiment","subject_nr":0,"subject_parity":"even","time_ITI":249705,"time_block_begin":60852,"time_block_loop":5929,"time_fb_skip":59353,"time_feedback":59353,"time_fixation":250805,"time_instructie":35,"time_inter_trial":249705,"time_keyboard_resp":251321,"time_logger":251937,"time_reproduction":251320,"time_task_loop":35,"time_trial_loop":60852,"title":"1_sec","total_correct":0,"total_response_time":9104,"total_responses":12,"uniform_coordinates":"yes","width":1024,"studyId":"12","studyTitle":"1_sec","batchId":"12","batchTitle":"Default","componentId":"12","componentPos":1,"componentTitle":"OSWeb experiment","workerId":"105","studyResultId":"104","componentResultId":"102","groupResultId":"null","groupMemberId":null},
{"acc":0,"accuracy":0,"average_response_time":743,"avg_rt":743,"background":"white","bidi":"no","block_repeat":"50","canvas_backend":"legacy","clock_backend":"legacy","color_backend":"legacy","compensation":0,"coordinates":"uniform","correct":"undefined","count_ITI":21,"count_block_begin":1,"count_block_loop":0,"count_block_procedure":1,"count_end_of_experiment":0,"count_experiment":0,"count_fb_skip":21,"count_feedback":9,"count_fixation":21,"count_instructie":0,"count_inter_trial":21,"count_keyboard_resp":21,"count_logger":21,"count_osweb":0,"count_reproduction":21,"count_task_loop":0,"count_task_procedure":0,"count_trial_loop":1,"count_trial_procedure":21,"datetime":"Mon Jun 01 2020 15:42:56 GMT+0200 (Central European Summer Time)","delay_ITI":1338,"description":"The main experiment item","disable_garbage_collection":"yes","empty_column":"","experiment_path":"/Volumes/GoogleDrive/My Drive/scholieren_academie/1_sec","font_bold":"no","font_family":"serif","font_italic":"no","font_size":18,"font_underline":"no","foreground":"black","form_clicks":"no","fullscreen":"no","height":768,"keyboard_backend":"legacy","mouse_backend":"legacy","opensesame_codename":"osweb","opensesame_version":"1.3.3","practice":"no","response":"space","response_block_begin":"space","response_fb_skip":"space","response_instructie":"space","response_keyboard_resp":"space","response_time":555,"response_time_block_begin":162698,"response_time_fb_skip":1460,"response_time_instructie":5864,"response_time_keyboard_resp":555,"round_decimals":2,"rt":"0","sampler_backend":"legacy","sessionid":1591018986772,"sound_buf_size":1024,"sound_channels":2,"sound_freq":48000,"sound_sample_size":-16,"start":"experiment","subject_nr":0,"subject_parity":"even","time_ITI":251945,"time_block_begin":60852,"time_block_loop":5929,"time_fb_skip":59353,"time_feedback":59353,"time_fixation":253286,"time_instructie":35,"time_inter_trial":251945,"time_keyboard_resp":253803,"time_logger":254369,"time_reproduction":253803,"time_task_loop":35,"time_trial_loop":60852,"title":"1_sec","total_correct":0,"total_response_time":9659,"total_responses":13,"uniform_coordinates":"yes","width":1024,"studyId":"12","studyTitle":"1_sec","batchId":"12","batchTitle":"Default","componentId":"12","componentPos":1,"componentTitle":"OSWeb experiment","workerId":"105","studyResultId":"104","componentResultId":"102","groupResultId":"null","groupMemberId":null},
{"acc":0,"accuracy":0,"average_response_time":732,"avg_rt":732,"background":"white","bidi":"no","block_repeat":"50","canvas_backend":"legacy","clock_backend":"legacy","color_backend":"legacy","compensation":0,"coordinates":"uniform","correct":"undefined","count_ITI":22,"count_block_begin":1,"count_block_loop":0,"count_block_procedure":1,"count_end_of_experiment":0,"count_experiment":0,"count_fb_skip":22,"count_feedback":9,"count_fixation":22,"count_instructie":0,"count_inter_trial":22,"count_keyboard_resp":22,"count_logger":22,"count_osweb":0,"count_reproduction":22,"count_task_loop":0,"count_task_procedure":0,"count_trial_loop":1,"count_trial_procedure":22,"datetime":"Mon Jun 01 2020 15:42:56 GMT+0200 (Central European Summer Time)","delay_ITI":1403,"description":"The main experiment item","disable_garbage_collection":"yes","empty_column":"","experiment_path":"/Volumes/GoogleDrive/My Drive/scholieren_academie/1_sec","font_bold":"no","font_family":"serif","font_italic":"no","font_size":18,"font_underline":"no","foreground":"black","form_clicks":"no","fullscreen":"no","height":768,"keyboard_backend":"legacy","mouse_backend":"legacy","opensesame_codename":"osweb","opensesame_version":"1.3.3","practice":"no","response":"space","response_block_begin":"space","response_fb_skip":"space","response_instructie":"space","response_keyboard_resp":"space","response_time":590,"response_time_block_begin":162698,"response_time_fb_skip":1460,"response_time_instructie":5864,"response_time_keyboard_resp":590,"round_decimals":2,"rt":"0","sampler_backend":"legacy","sessionid":1591018986772,"sound_buf_size":1024,"sound_channels":2,"sound_freq":48000,"sound_sample_size":-16,"start":"experiment","subject_nr":0,"subject_parity":"even","time_ITI":254377,"time_block_begin":60852,"time_block_loop":5929,"time_fb_skip":59353,"time_feedback":59353,"time_fixation":255786,"time_instructie":35,"time_inter_trial":254377,"time_keyboard_resp":256301,"time_logger":256902,"time_reproduction":256301,"time_task_loop":35,"time_trial_loop":60852,"title":"1_sec","total_correct":0,"total_response_time":10249,"total_responses":14,"uniform_coordinates":"yes","width":1024,"studyId":"12","studyTitle":"1_sec","batchId":"12","batchTitle":"Default","componentId":"12","componentPos":1,"componentTitle":"OSWeb experiment","workerId":"105","studyResultId":"104","componentResultId":"102","groupResultId":"null","groupMemberId":null},
{"acc":0,"accuracy":0,"average_response_time":739,"avg_rt":739,"background":"white","bidi":"no","block_repeat":"50","canvas_backend":"legacy","clock_backend":"legacy","color_backend":"legacy","compensation":0,"coordinates":"uniform","correct":"undefined","count_ITI":23,"count_block_begin":1,"count_block_loop":0,"count_block_procedure":1,"count_end_of_experiment":0,"count_experiment":0,"count_fb_skip":23,"count_feedback":9,"count_fixation":23,"count_instructie":0,"count_inter_trial":23,"count_keyboard_resp":23,"count_logger":23,"count_osweb":0,"count_reproduction":23,"count_task_loop":0,"count_task_procedure":0,"count_trial_loop":1,"count_trial_procedure":23,"datetime":"Mon Jun 01 2020 15:42:56 GMT+0200 (Central European Summer Time)","delay_ITI":1983,"description":"The main experiment item","disable_garbage_collection":"yes","empty_column":"","experiment_path":"/Volumes/GoogleDrive/My Drive/scholieren_academie/1_sec","font_bold":"no","font_family":"serif","font_italic":"no","font_size":18,"font_underline":"no","foreground":"black","form_clicks":"no","fullscreen":"no","height":768,"keyboard_backend":"legacy","mouse_backend":"legacy","opensesame_codename":"osweb","opensesame_version":"1.3.3","practice":"no","response":"space","response_block_begin":"space","response_fb_skip":"space","response_instructie":"space","response_keyboard_resp":"space","response_time":836,"response_time_block_begin":162698,"response_time_fb_skip":1460,"response_time_instructie":5864,"response_time_keyboard_resp":836,"round_decimals":2,"rt":"0","sampler_backend":"legacy","sessionid":1591018986772,"sound_buf_size":1024,"sound_channels":2,"sound_freq":48000,"sound_sample_size":-16,"start":"experiment","subject_nr":0,"subject_parity":"even","time_ITI":256909,"time_block_begin":60852,"time_block_loop":5929,"time_fb_skip":59353,"time_feedback":59353,"time_fixation":258902,"time_instructie":35,"time_inter_trial":256909,"time_keyboard_resp":259418,"time_logger":260267,"time_reproduction":259418,"time_task_loop":35,"time_trial_loop":60852,"title":"1_sec","total_correct":0,"total_response_time":11085,"total_responses":15,"uniform_coordinates":"yes","width":1024,"studyId":"12","studyTitle":"1_sec","batchId":"12","batchTitle":"Default","componentId":"12","componentPos":1,"componentTitle":"OSWeb experiment","workerId":"105","studyResultId":"104","componentResultId":"102","groupResultId":"null","groupMemberId":null},
{"acc":0,"accuracy":0,"average_response_time":734,"avg_rt":734,"background":"white","bidi":"no","block_repeat":"50","canvas_backend":"legacy","clock_backend":"legacy","color_backend":"legacy","compensation":0,"coordinates":"uniform","correct":"undefined","count_ITI":24,"count_block_begin":1,"count_block_loop":0,"count_block_procedure":1,"count_end_of_experiment":0,"count_experiment":0,"count_fb_skip":24,"count_feedback":9,"count_fixation":24,"count_instructie":0,"count_inter_trial":24,"count_keyboard_resp":24,"count_logger":24,"count_osweb":0,"count_reproduction":24,"count_task_loop":0,"count_task_procedure":0,"count_trial_loop":1,"count_trial_procedure":24,"datetime":"Mon Jun 01 2020 15:42:56 GMT+0200 (Central European Summer Time)","delay_ITI":1758,"description":"The main experiment item","disable_garbage_collection":"yes","empty_column":"","experiment_path":"/Volumes/GoogleDrive/My Drive/scholieren_academie/1_sec","font_bold":"no","font_family":"serif","font_italic":"no","font_size":18,"font_underline":"no","foreground":"black","form_clicks":"no","fullscreen":"no","height":768,"keyboard_backend":"legacy","mouse_backend":"legacy","opensesame_codename":"osweb","opensesame_version":"1.3.3","practice":"no","response":"space","response_block_begin":"space","response_fb_skip":"space","response_instructie":"space","response_keyboard_resp":"space","response_time":651,"response_time_block_begin":162698,"response_time_fb_skip":1460,"response_time_instructie":5864,"response_time_keyboard_resp":651,"round_decimals":2,"rt":"0","sampler_backend":"legacy","sessionid":1591018986772,"sound_buf_size":1024,"sound_channels":2,"sound_freq":48000,"sound_sample_size":-16,"start":"experiment","subject_nr":0,"subject_parity":"even","time_ITI":260275,"time_block_begin":60852,"time_block_loop":5929,"time_fb_skip":59353,"time_feedback":59353,"time_fixation":262050,"time_instructie":35,"time_inter_trial":260275,"time_keyboard_resp":262567,"time_logger":263233,"time_reproduction":262567,"time_task_loop":35,"time_trial_loop":60852,"title":"1_sec","total_correct":0,"total_response_time":11736,"total_responses":16,"uniform_coordinates":"yes","width":1024,"studyId":"12","studyTitle":"1_sec","batchId":"12","batchTitle":"Default","componentId":"12","componentPos":1,"componentTitle":"OSWeb experiment","workerId":"105","studyResultId":"104","componentResultId":"102","groupResultId":"null","groupMemberId":null},
{"acc":0,"accuracy":0,"average_response_time":730,"avg_rt":730,"background":"white","bidi":"no","block_repeat":"50","canvas_backend":"legacy","clock_backend":"legacy","color_backend":"legacy","compensation":0,"coordinates":"uniform","correct":"undefined","count_ITI":25,"count_block_begin":1,"count_block_loop":0,"count_block_procedure":1,"count_end_of_experiment":0,"count_experiment":0,"count_fb_skip":25,"count_feedback":9,"count_fixation":25,"count_instructie":0,"count_inter_trial":25,"count_keyboard_resp":25,"count_logger":25,"count_osweb":0,"count_reproduction":25,"count_task_loop":0,"count_task_procedure":0,"count_trial_loop":1,"count_trial_procedure":25,"datetime":"Mon Jun 01 2020 15:42:56 GMT+0200 (Central European Summer Time)","delay_ITI":1148,"description":"The main experiment item","disable_garbage_collection":"yes","empty_column":"","experiment_path":"/Volumes/GoogleDrive/My Drive/scholieren_academie/1_sec","font_bold":"no","font_family":"serif","font_italic":"no","font_size":18,"font_underline":"no","foreground":"black","form_clicks":"no","fullscreen":"no","height":768,"keyboard_backend":"legacy","mouse_backend":"legacy","opensesame_codename":"osweb","opensesame_version":"1.3.3","practice":"no","response":"space","response_block_begin":"space","response_fb_skip":"space","response_instructie":"space","response_keyboard_resp":"space","response_time":666,"response_time_block_begin":162698,"response_time_fb_skip":1460,"response_time_instructie":5864,"response_time_keyboard_resp":666,"round_decimals":2,"rt":"0","sampler_backend":"legacy","sessionid":1591018986772,"sound_buf_size":1024,"sound_channels":2,"sound_freq":48000,"sound_sample_size":-16,"start":"experiment","subject_nr":0,"subject_parity":"even","time_ITI":263240,"time_block_begin":60852,"time_block_loop":5929,"time_fb_skip":59353,"time_feedback":59353,"time_fixation":264400,"time_instructie":35,"time_inter_trial":263240,"time_keyboard_resp":264916,"time_logger":265583,"time_reproduction":264916,"time_task_loop":35,"time_trial_loop":60852,"title":"1_sec","total_correct":0,"total_response_time":12402,"total_responses":17,"uniform_coordinates":"yes","width":1024,"studyId":"12","studyTitle":"1_sec","batchId":"12","batchTitle":"Default","componentId":"12","componentPos":1,"componentTitle":"OSWeb experiment","workerId":"105","studyResultId":"104","componentResultId":"102","groupResultId":"null","groupMemberId":null},
{"acc":0,"accuracy":0,"average_response_time":729,"avg_rt":729,"background":"white","bidi":"no","block_repeat":"50","canvas_backend":"legacy","clock_backend":"legacy","color_backend":"legacy","compensation":0,"coordinates":"uniform","correct":"undefined","count_ITI":26,"count_block_begin":1,"count_block_loop":0,"count_block_procedure":1,"count_end_of_experiment":0,"count_experiment":0,"count_fb_skip":26,"count_feedback":9,"count_fixation":26,"count_instructie":0,"count_inter_trial":26,"count_keyboard_resp":26,"count_logger":26,"count_osweb":0,"count_reproduction":26,"count_task_loop":0,"count_task_procedure":0,"count_trial_loop":1,"count_trial_procedure":26,"datetime":"Mon Jun 01 2020 15:42:56 GMT+0200 (Central European Summer Time)","delay_ITI":1095,"description":"The main experiment item","disable_garbage_collection":"yes","empty_column":"","experiment_path":"/Volumes/GoogleDrive/My Drive/scholieren_academie/1_sec","font_bold":"no","font_family":"serif","font_italic":"no","font_size":18,"font_underline":"no","foreground":"black","form_clicks":"no","fullscreen":"no","height":768,"keyboard_backend":"legacy","mouse_backend":"legacy","opensesame_codename":"osweb","opensesame_version":"1.3.3","practice":"no","response":"space","response_block_begin":"space","response_fb_skip":"space","response_instructie":"space","response_keyboard_resp":"space","response_time":711,"response_time_block_begin":162698,"response_time_fb_skip":1460,"response_time_instructie":5864,"response_time_keyboard_resp":711,"round_decimals":2,"rt":"0","sampler_backend":"legacy","sessionid":1591018986772,"sound_buf_size":1024,"sound_channels":2,"sound_freq":48000,"sound_sample_size":-16,"start":"experiment","subject_nr":0,"subject_parity":"even","time_ITI":265591,"time_block_begin":60852,"time_block_loop":5929,"time_fb_skip":59353,"time_feedback":59353,"time_fixation":266699,"time_instructie":35,"time_inter_trial":265591,"time_keyboard_resp":267214,"time_logger":267932,"time_reproduction":267214,"time_task_loop":35,"time_trial_loop":60852,"title":"1_sec","total_correct":0,"total_response_time":13113,"total_responses":18,"uniform_coordinates":"yes","width":1024,"studyId":"12","studyTitle":"1_sec","batchId":"12","batchTitle":"Default","componentId":"12","componentPos":1,"componentTitle":"OSWeb experiment","workerId":"105","studyResultId":"104","componentResultId":"102","groupResultId":"null","groupMemberId":null},
{"acc":0,"accuracy":0,"average_response_time":719,"avg_rt":719,"background":"white","bidi":"no","block_repeat":"50","canvas_backend":"legacy","clock_backend":"legacy","color_backend":"legacy","compensation":0,"coordinates":"uniform","correct":"undefined","count_ITI":27,"count_block_begin":1,"count_block_loop":0,"count_block_procedure":1,"count_end_of_experiment":0,"count_experiment":0,"count_fb_skip":27,"count_feedback":9,"count_fixation":27,"count_instructie":0,"count_inter_trial":27,"count_keyboard_resp":27,"count_logger":27,"count_osweb":0,"count_reproduction":27,"count_task_loop":0,"count_task_procedure":0,"count_trial_loop":1,"count_trial_procedure":27,"datetime":"Mon Jun 01 2020 15:42:56 GMT+0200 (Central European Summer Time)","delay_ITI":1435,"description":"The main experiment item","disable_garbage_collection":"yes","empty_column":"","experiment_path":"/Volumes/GoogleDrive/My Drive/scholieren_academie/1_sec","font_bold":"no","font_family":"serif","font_italic":"no","font_size":18,"font_underline":"no","foreground":"black","form_clicks":"no","fullscreen":"no","height":768,"keyboard_backend":"legacy","mouse_backend":"legacy","opensesame_codename":"osweb","opensesame_version":"1.3.3","practice":"no","response":"space","response_block_begin":"space","response_fb_skip":"space","response_instructie":"space","response_keyboard_resp":"space","response_time":551,"response_time_block_begin":162698,"response_time_fb_skip":1460,"response_time_instructie":5864,"response_time_keyboard_resp":551,"round_decimals":2,"rt":"0","sampler_backend":"legacy","sessionid":1591018986772,"sound_buf_size":1024,"sound_channels":2,"sound_freq":48000,"sound_sample_size":-16,"start":"experiment","subject_nr":0,"subject_parity":"even","time_ITI":267940,"time_block_begin":60852,"time_block_loop":5929,"time_fb_skip":59353,"time_feedback":59353,"time_fixation":269382,"time_instructie":35,"time_inter_trial":267939,"time_keyboard_resp":269898,"time_logger":270464,"time_reproduction":269898,"time_task_loop":35,"time_trial_loop":60852,"title":"1_sec","total_correct":0,"total_response_time":13664,"total_responses":19,"uniform_coordinates":"yes","width":1024,"studyId":"12","studyTitle":"1_sec","batchId":"12","batchTitle":"Default","componentId":"12","componentPos":1,"componentTitle":"OSWeb experiment","workerId":"105","studyResultId":"104","componentResultId":"102","groupResultId":"null","groupMemberId":null},
{"acc":0,"accuracy":0,"average_response_time":714,"avg_rt":714,"background":"white","bidi":"no","block_repeat":"50","canvas_backend":"legacy","clock_backend":"legacy","color_backend":"legacy","compensation":0,"coordinates":"uniform","correct":"undefined","count_ITI":28,"count_block_begin":1,"count_block_loop":0,"count_block_procedure":1,"count_end_of_experiment":0,"count_experiment":0,"count_fb_skip":28,"count_feedback":9,"count_fixation":28,"count_instructie":0,"count_inter_trial":28,"count_keyboard_resp":28,"count_logger":28,"count_osweb":0,"count_reproduction":28,"count_task_loop":0,"count_task_procedure":0,"count_trial_loop":1,"count_trial_procedure":28,"datetime":"Mon Jun 01 2020 15:42:56 GMT+0200 (Central European Summer Time)","delay_ITI":1050,"description":"The main experiment item","disable_garbage_collection":"yes","empty_column":"","experiment_path":"/Volumes/GoogleDrive/My Drive/scholieren_academie/1_sec","font_bold":"no","font_family":"serif","font_italic":"no","font_size":18,"font_underline":"no","foreground":"black","form_clicks":"no","fullscreen":"no","height":768,"keyboard_backend":"legacy","mouse_backend":"legacy","opensesame_codename":"osweb","opensesame_version":"1.3.3","practice":"no","response":"space","response_block_begin":"space","response_fb_skip":"space","response_instructie":"space","response_keyboard_resp":"space","response_time":607,"response_time_block_begin":162698,"response_time_fb_skip":1460,"response_time_instructie":5864,"response_time_keyboard_resp":607,"round_decimals":2,"rt":"0","sampler_backend":"legacy","sessionid":1591018986772,"sound_buf_size":1024,"sound_channels":2,"sound_freq":48000,"sound_sample_size":-16,"start":"experiment","subject_nr":0,"subject_parity":"even","time_ITI":270472,"time_block_begin":60852,"time_block_loop":5929,"time_fb_skip":59353,"time_feedback":59353,"time_fixation":271531,"time_instructie":35,"time_inter_trial":270472,"time_keyboard_resp":272047,"time_logger":272663,"time_reproduction":272047,"time_task_loop":35,"time_trial_loop":60852,"title":"1_sec","total_correct":0,"total_response_time":14271,"total_responses":20,"uniform_coordinates":"yes","width":1024,"studyId":"12","studyTitle":"1_sec","batchId":"12","batchTitle":"Default","componentId":"12","componentPos":1,"componentTitle":"OSWeb experiment","workerId":"105","studyResultId":"104","componentResultId":"102","groupResultId":"null","groupMemberId":null},
{"acc":0,"accuracy":0,"average_response_time":703,"avg_rt":703,"background":"white","bidi":"no","block_repeat":"50","canvas_backend":"legacy","clock_backend":"legacy","color_backend":"legacy","compensation":0,"coordinates":"uniform","correct":"undefined","count_ITI":29,"count_block_begin":1,"count_block_loop":0,"count_block_procedure":1,"count_end_of_experiment":0,"count_experiment":0,"count_fb_skip":29,"count_feedback":9,"count_fixation":29,"count_instructie":0,"count_inter_trial":29,"count_keyboard_resp":29,"count_logger":29,"count_osweb":0,"count_reproduction":29,"count_task_loop":0,"count_task_procedure":0,"count_trial_loop":1,"count_trial_procedure":29,"datetime":"Mon Jun 01 2020 15:42:56 GMT+0200 (Central European Summer Time)","delay_ITI":1028,"description":"The main experiment item","disable_garbage_collection":"yes","empty_column":"","experiment_path":"/Volumes/GoogleDrive/My Drive/scholieren_academie/1_sec","font_bold":"no","font_family":"serif","font_italic":"no","font_size":18,"font_underline":"no","foreground":"black","form_clicks":"no","fullscreen":"no","height":768,"keyboard_backend":"legacy","mouse_backend":"legacy","opensesame_codename":"osweb","opensesame_version":"1.3.3","practice":"no","response":"space","response_block_begin":"space","response_fb_skip":"space","response_instructie":"space","response_keyboard_resp":"space","response_time":489,"response_time_block_begin":162698,"response_time_fb_skip":1460,"response_time_instructie":5864,"response_time_keyboard_resp":489,"round_decimals":2,"rt":"0","sampler_backend":"legacy","sessionid":1591018986772,"sound_buf_size":1024,"sound_channels":2,"sound_freq":48000,"sound_sample_size":-16,"start":"experiment","subject_nr":0,"subject_parity":"even","time_ITI":272671,"time_block_begin":60852,"time_block_loop":5929,"time_fb_skip":59353,"time_feedback":59353,"time_fixation":273714,"time_instructie":35,"time_inter_trial":272671,"time_keyboard_resp":274230,"time_logger":274729,"time_reproduction":274230,"time_task_loop":35,"time_trial_loop":60852,"title":"1_sec","total_correct":0,"total_response_time":14760,"total_responses":21,"uniform_coordinates":"yes","width":1024,"studyId":"12","studyTitle":"1_sec","batchId":"12","batchTitle":"Default","componentId":"12","componentPos":1,"componentTitle":"OSWeb experiment","workerId":"105","studyResultId":"104","componentResultId":"102","groupResultId":"null","groupMemberId":null},
{"acc":0,"accuracy":0,"average_response_time":688,"avg_rt":688,"background":"white","bidi":"no","block_repeat":"50","canvas_backend":"legacy","clock_backend":"legacy","color_backend":"legacy","compensation":0,"coordinates":"uniform","correct":"undefined","count_ITI":30,"count_block_begin":1,"count_block_loop":0,"count_block_procedure":1,"count_end_of_experiment":0,"count_experiment":0,"count_fb_skip":30,"count_feedback":9,"count_fixation":30,"count_instructie":0,"count_inter_trial":30,"count_keyboard_resp":30,"count_logger":30,"count_osweb":0,"count_reproduction":30,"count_task_loop":0,"count_task_procedure":0,"count_trial_loop":1,"count_trial_procedure":30,"datetime":"Mon Jun 01 2020 15:42:56 GMT+0200 (Central European Summer Time)","delay_ITI":1722,"description":"The main experiment item","disable_garbage_collection":"yes","empty_column":"","experiment_path":"/Volumes/GoogleDrive/My Drive/scholieren_academie/1_sec","font_bold":"no","font_family":"serif","font_italic":"no","font_size":18,"font_underline":"no","foreground":"black","form_clicks":"no","fullscreen":"no","height":768,"keyboard_backend":"legacy","mouse_backend":"legacy","opensesame_codename":"osweb","opensesame_version":"1.3.3","practice":"no","response":"space","response_block_begin":"space","response_fb_skip":"space","response_instructie":"space","response_keyboard_resp":"space","response_time":385,"response_time_block_begin":162698,"response_time_fb_skip":1460,"response_time_instructie":5864,"response_time_keyboard_resp":385,"round_decimals":2,"rt":"0","sampler_backend":"legacy","sessionid":1591018986772,"sound_buf_size":1024,"sound_channels":2,"sound_freq":48000,"sound_sample_size":-16,"start":"experiment","subject_nr":0,"subject_parity":"even","time_ITI":274735,"time_block_begin":60852,"time_block_loop":5929,"time_fb_skip":59353,"time_feedback":59353,"time_fixation":276462,"time_instructie":35,"time_inter_trial":274735,"time_keyboard_resp":276978,"time_logger":277378,"time_reproduction":276978,"time_task_loop":35,"time_trial_loop":60852,"title":"1_sec","total_correct":0,"total_response_time":15145,"total_responses":22,"uniform_coordinates":"yes","width":1024,"studyId":"12","studyTitle":"1_sec","batchId":"12","batchTitle":"Default","componentId":"12","componentPos":1,"componentTitle":"OSWeb experiment","workerId":"105","studyResultId":"104","componentResultId":"102","groupResultId":"null","groupMemberId":null},
{"acc":0,"accuracy":0,"average_response_time":677,"avg_rt":677,"background":"white","bidi":"no","block_repeat":"50","canvas_backend":"legacy","clock_backend":"legacy","color_backend":"legacy","compensation":0,"coordinates":"uniform","correct":"undefined","count_ITI":31,"count_block_begin":1,"count_block_loop":0,"count_block_procedure":1,"count_end_of_experiment":0,"count_experiment":0,"count_fb_skip":31,"count_feedback":9,"count_fixation":31,"count_instructie":0,"count_inter_trial":31,"count_keyboard_resp":31,"count_logger":31,"count_osweb":0,"count_reproduction":31,"count_task_loop":0,"count_task_procedure":0,"count_trial_loop":1,"count_trial_procedure":31,"datetime":"Mon Jun 01 2020 15:42:56 GMT+0200 (Central European Summer Time)","delay_ITI":1868,"description":"The main experiment item","disable_garbage_collection":"yes","empty_column":"","experiment_path":"/Volumes/GoogleDrive/My Drive/scholieren_academie/1_sec","font_bold":"no","font_family":"serif","font_italic":"no","font_size":18,"font_underline":"no","foreground":"black","form_clicks":"no","fullscreen":"no","height":768,"keyboard_backend":"legacy","mouse_backend":"legacy","opensesame_codename":"osweb","opensesame_version":"1.3.3","practice":"no","response":"space","response_block_begin":"space","response_fb_skip":"space","response_instructie":"space","response_keyboard_resp":"space","response_time":437,"response_time_block_begin":162698,"response_time_fb_skip":1460,"response_time_instructie":5864,"response_time_keyboard_resp":437,"round_decimals":2,"rt":"0","sampler_backend":"legacy","sessionid":1591018986772,"sound_buf_size":1024,"sound_channels":2,"sound_freq":48000,"sound_sample_size":-16,"start":"experiment","subject_nr":0,"subject_parity":"even","time_ITI":277380,"time_block_begin":60852,"time_block_loop":5929,"time_fb_skip":59353,"time_feedback":59353,"time_fixation":279262,"time_instructie":35,"time_inter_trial":277380,"time_keyboard_resp":279778,"time_logger":280232,"time_reproduction":279778,"time_task_loop":35,"time_trial_loop":60852,"title":"1_sec","total_correct":0,"total_response_time":15582,"total_responses":23,"uniform_coordinates":"yes","width":1024,"studyId":"12","studyTitle":"1_sec","batchId":"12","batchTitle":"Default","componentId":"12","componentPos":1,"componentTitle":"OSWeb experiment","workerId":"105","studyResultId":"104","componentResultId":"102","groupResultId":"null","groupMemberId":null},
{"acc":0,"accuracy":0,"average_response_time":670,"avg_rt":670,"background":"white","bidi":"no","block_repeat":"50","canvas_backend":"legacy","clock_backend":"legacy","color_backend":"legacy","compensation":0,"coordinates":"uniform","correct":"undefined","count_ITI":32,"count_block_begin":1,"count_block_loop":0,"count_block_procedure":1,"count_end_of_experiment":0,"count_experiment":0,"count_fb_skip":32,"count_feedback":9,"count_fixation":32,"count_instructie":0,"count_inter_trial":32,"count_keyboard_resp":32,"count_logger":32,"count_osweb":0,"count_reproduction":32,"count_task_loop":0,"count_task_procedure":0,"count_trial_loop":1,"count_trial_procedure":32,"datetime":"Mon Jun 01 2020 15:42:56 GMT+0200 (Central European Summer Time)","delay_ITI":1089,"description":"The main experiment item","disable_garbage_collection":"yes","empty_column":"","experiment_path":"/Volumes/GoogleDrive/My Drive/scholieren_academie/1_sec","font_bold":"no","font_family":"serif","font_italic":"no","font_size":18,"font_underline":"no","foreground":"black","form_clicks":"no","fullscreen":"no","height":768,"keyboard_backend":"legacy","mouse_backend":"legacy","opensesame_codename":"osweb","opensesame_version":"1.3.3","practice":"no","response":"space","response_block_begin":"space","response_fb_skip":"space","response_instructie":"space","response_keyboard_resp":"space","response_time":498,"response_time_block_begin":162698,"response_time_fb_skip":1460,"response_time_instructie":5864,"response_time_keyboard_resp":498,"round_decimals":2,"rt":"0","sampler_backend":"legacy","sessionid":1591018986772,"sound_buf_size":1024,"sound_channels":2,"sound_freq":48000,"sound_sample_size":-16,"start":"experiment","subject_nr":0,"subject_parity":"even","time_ITI":280235,"time_block_begin":60852,"time_block_loop":5929,"time_fb_skip":59353,"time_feedback":59353,"time_fixation":281328,"time_instructie":35,"time_inter_trial":280235,"time_keyboard_resp":281844,"time_logger":282343,"time_reproduction":281844,"time_task_loop":35,"time_trial_loop":60852,"title":"1_sec","total_correct":0,"total_response_time":16080,"total_responses":24,"uniform_coordinates":"yes","width":1024,"studyId":"12","studyTitle":"1_sec","batchId":"12","batchTitle":"Default","componentId":"12","componentPos":1,"componentTitle":"OSWeb experiment","workerId":"105","studyResultId":"104","componentResultId":"102","groupResultId":"null","groupMemberId":null},
{"acc":0,"accuracy":0,"average_response_time":655,"avg_rt":655,"background":"white","bidi":"no","block_repeat":"50","canvas_backend":"legacy","clock_backend":"legacy","color_backend":"legacy","compensation":0,"coordinates":"uniform","correct":"undefined","count_ITI":33,"count_block_begin":1,"count_block_loop":0,"count_block_procedure":1,"count_end_of_experiment":0,"count_experiment":0,"count_fb_skip":33,"count_feedback":9,"count_fixation":33,"count_instructie":0,"count_inter_trial":33,"count_keyboard_resp":33,"count_logger":33,"count_osweb":0,"count_reproduction":33,"count_task_loop":0,"count_task_procedure":0,"count_trial_loop":1,"count_trial_procedure":33,"datetime":"Mon Jun 01 2020 15:42:56 GMT+0200 (Central European Summer Time)","delay_ITI":1268,"description":"The main experiment item","disable_garbage_collection":"yes","empty_column":"","experiment_path":"/Volumes/GoogleDrive/My Drive/scholieren_academie/1_sec","font_bold":"no","font_family":"serif","font_italic":"no","font_size":18,"font_underline":"no","foreground":"black","form_clicks":"no","fullscreen":"no","height":768,"keyboard_backend":"legacy","mouse_backend":"legacy","opensesame_codename":"osweb","opensesame_version":"1.3.3","practice":"no","response":"space","response_block_begin":"space","response_fb_skip":"space","response_instructie":"space","response_keyboard_resp":"space","response_time":297,"response_time_block_begin":162698,"response_time_fb_skip":1460,"response_time_instructie":5864,"response_time_keyboard_resp":297,"round_decimals":2,"rt":"0","sampler_backend":"legacy","sessionid":1591018986772,"sound_buf_size":1024,"sound_channels":2,"sound_freq":48000,"sound_sample_size":-16,"start":"experiment","subject_nr":0,"subject_parity":"even","time_ITI":282351,"time_block_begin":60852,"time_block_loop":5929,"time_fb_skip":59353,"time_feedback":59353,"time_fixation":283627,"time_instructie":35,"time_inter_trial":282351,"time_keyboard_resp":284144,"time_logger":284443,"time_reproduction":284144,"time_task_loop":35,"time_trial_loop":60852,"title":"1_sec","total_correct":0,"total_response_time":16377,"total_responses":25,"uniform_coordinates":"yes","width":1024,"studyId":"12","studyTitle":"1_sec","batchId":"12","batchTitle":"Default","componentId":"12","componentPos":1,"componentTitle":"OSWeb experiment","workerId":"105","studyResultId":"104","componentResultId":"102","groupResultId":"null","groupMemberId":null},
{"acc":0,"accuracy":0,"average_response_time":640,"avg_rt":640,"background":"white","bidi":"no","block_repeat":"50","canvas_backend":"legacy","clock_backend":"legacy","color_backend":"legacy","compensation":0,"coordinates":"uniform","correct":"undefined","count_ITI":34,"count_block_begin":1,"count_block_loop":0,"count_block_procedure":1,"count_end_of_experiment":0,"count_experiment":0,"count_fb_skip":34,"count_feedback":9,"count_fixation":34,"count_instructie":0,"count_inter_trial":34,"count_keyboard_resp":34,"count_logger":34,"count_osweb":0,"count_reproduction":34,"count_task_loop":0,"count_task_procedure":0,"count_trial_loop":1,"count_trial_procedure":34,"datetime":"Mon Jun 01 2020 15:42:56 GMT+0200 (Central European Summer Time)","delay_ITI":1829,"description":"The main experiment item","disable_garbage_collection":"yes","empty_column":"","experiment_path":"/Volumes/GoogleDrive/My Drive/scholieren_academie/1_sec","font_bold":"no","font_family":"serif","font_italic":"no","font_size":18,"font_underline":"no","foreground":"black","form_clicks":"no","fullscreen":"no","height":768,"keyboard_backend":"legacy","mouse_backend":"legacy","opensesame_codename":"osweb","opensesame_version":"1.3.3","practice":"no","response":"space","response_block_begin":"space","response_fb_skip":"space","response_instructie":"space","response_keyboard_resp":"space","response_time":266,"response_time_block_begin":162698,"response_time_fb_skip":1460,"response_time_instructie":5864,"response_time_keyboard_resp":266,"round_decimals":2,"rt":"0","sampler_backend":"legacy","sessionid":1591018986772,"sound_buf_size":1024,"sound_channels":2,"sound_freq":48000,"sound_sample_size":-16,"start":"experiment","subject_nr":0,"subject_parity":"even","time_ITI":284450,"time_block_begin":60852,"time_block_loop":5929,"time_fb_skip":59353,"time_feedback":59353,"time_fixation":286293,"time_instructie":35,"time_inter_trial":284450,"time_keyboard_resp":286810,"time_logger":287092,"time_reproduction":286810,"time_task_loop":35,"time_trial_loop":60852,"title":"1_sec","total_correct":0,"total_response_time":16643,"total_responses":26,"uniform_coordinates":"yes","width":1024,"studyId":"12","studyTitle":"1_sec","batchId":"12","batchTitle":"Default","componentId":"12","componentPos":1,"componentTitle":"OSWeb experiment","workerId":"105","studyResultId":"104","componentResultId":"102","groupResultId":"null","groupMemberId":null},
{"acc":0,"accuracy":0,"average_response_time":628,"avg_rt":628,"background":"white","bidi":"no","block_repeat":"50","canvas_backend":"legacy","clock_backend":"legacy","color_backend":"legacy","compensation":0,"coordinates":"uniform","correct":"undefined","count_ITI":35,"count_block_begin":1,"count_block_loop":0,"count_block_procedure":1,"count_end_of_experiment":0,"count_experiment":0,"count_fb_skip":35,"count_feedback":9,"count_fixation":35,"count_instructie":0,"count_inter_trial":35,"count_keyboard_resp":35,"count_logger":35,"count_osweb":0,"count_reproduction":35,"count_task_loop":0,"count_task_procedure":0,"count_trial_loop":1,"count_trial_procedure":35,"datetime":"Mon Jun 01 2020 15:42:56 GMT+0200 (Central European Summer Time)","delay_ITI":1139,"description":"The main experiment item","disable_garbage_collection":"yes","empty_column":"","experiment_path":"/Volumes/GoogleDrive/My Drive/scholieren_academie/1_sec","font_bold":"no","font_family":"serif","font_italic":"no","font_size":18,"font_underline":"no","foreground":"black","form_clicks":"no","fullscreen":"no","height":768,"keyboard_backend":"legacy","mouse_backend":"legacy","opensesame_codename":"osweb","opensesame_version":"1.3.3","practice":"no","response":"space","response_block_begin":"space","response_fb_skip":"space","response_instructie":"space","response_keyboard_resp":"space","response_time":303,"response_time_block_begin":162698,"response_time_fb_skip":1460,"response_time_instructie":5864,"response_time_keyboard_resp":303,"round_decimals":2,"rt":"0","sampler_backend":"legacy","sessionid":1591018986772,"sound_buf_size":1024,"sound_channels":2,"sound_freq":48000,"sound_sample_size":-16,"start":"experiment","subject_nr":0,"subject_parity":"even","time_ITI":287098,"time_block_begin":60852,"time_block_loop":5929,"time_fb_skip":59353,"time_feedback":59353,"time_fixation":288243,"time_instructie":35,"time_inter_trial":287098,"time_keyboard_resp":288759,"time_logger":289074,"time_reproduction":288759,"time_task_loop":35,"time_trial_loop":60852,"title":"1_sec","total_correct":0,"total_response_time":16946,"total_responses":27,"uniform_coordinates":"yes","width":1024,"studyId":"12","studyTitle":"1_sec","batchId":"12","batchTitle":"Default","componentId":"12","componentPos":1,"componentTitle":"OSWeb experiment","workerId":"105","studyResultId":"104","componentResultId":"102","groupResultId":"null","groupMemberId":null},
{"acc":0,"accuracy":0,"average_response_time":618,"avg_rt":618,"background":"white","bidi":"no","block_repeat":"50","canvas_backend":"legacy","clock_backend":"legacy","color_backend":"legacy","compensation":0,"coordinates":"uniform","correct":"undefined","count_ITI":36,"count_block_begin":1,"count_block_loop":0,"count_block_procedure":1,"count_end_of_experiment":0,"count_experiment":0,"count_fb_skip":36,"count_feedback":9,"count_fixation":36,"count_instructie":0,"count_inter_trial":36,"count_keyboard_resp":36,"count_logger":36,"count_osweb":0,"count_reproduction":36,"count_task_loop":0,"count_task_procedure":0,"count_trial_loop":1,"count_trial_procedure":36,"datetime":"Mon Jun 01 2020 15:42:56 GMT+0200 (Central European Summer Time)","delay_ITI":1367,"description":"The main experiment item","disable_garbage_collection":"yes","empty_column":"","experiment_path":"/Volumes/GoogleDrive/My Drive/scholieren_academie/1_sec","font_bold":"no","font_family":"serif","font_italic":"no","font_size":18,"font_underline":"no","foreground":"black","form_clicks":"no","fullscreen":"no","height":768,"keyboard_backend":"legacy","mouse_backend":"legacy","opensesame_codename":"osweb","opensesame_version":"1.3.3","practice":"no","response":"space","response_block_begin":"space","response_fb_skip":"space","response_instructie":"space","response_keyboard_resp":"space","response_time":360,"response_time_block_begin":162698,"response_time_fb_skip":1460,"response_time_instructie":5864,"response_time_keyboard_resp":360,"round_decimals":2,"rt":"0","sampler_backend":"legacy","sessionid":1591018986772,"sound_buf_size":1024,"sound_channels":2,"sound_freq":48000,"sound_sample_size":-16,"start":"experiment","subject_nr":0,"subject_parity":"even","time_ITI":289076,"time_block_begin":60852,"time_block_loop":5929,"time_fb_skip":59353,"time_feedback":59353,"time_fixation":290457,"time_instructie":35,"time_inter_trial":289076,"time_keyboard_resp":290975,"time_logger":291341,"time_reproduction":290975,"time_task_loop":35,"time_trial_loop":60852,"title":"1_sec","total_correct":0,"total_response_time":17306,"total_responses":28,"uniform_coordinates":"yes","width":1024,"studyId":"12","studyTitle":"1_sec","batchId":"12","batchTitle":"Default","componentId":"12","componentPos":1,"componentTitle":"OSWeb experiment","workerId":"105","studyResultId":"104","componentResultId":"102","groupResultId":"null","groupMemberId":null},
{"acc":0,"accuracy":0,"average_response_time":606,"avg_rt":606,"background":"white","bidi":"no","block_repeat":"50","canvas_backend":"legacy","clock_backend":"legacy","color_backend":"legacy","compensation":0,"coordinates":"uniform","correct":"undefined","count_ITI":37,"count_block_begin":1,"count_block_loop":0,"count_block_procedure":1,"count_end_of_experiment":0,"count_experiment":0,"count_fb_skip":37,"count_feedback":9,"count_fixation":37,"count_instructie":0,"count_inter_trial":37,"count_keyboard_resp":37,"count_logger":37,"count_osweb":0,"count_reproduction":37,"count_task_loop":0,"count_task_procedure":0,"count_trial_loop":1,"count_trial_procedure":37,"datetime":"Mon Jun 01 2020 15:42:56 GMT+0200 (Central European Summer Time)","delay_ITI":1888,"description":"The main experiment item","disable_garbage_collection":"yes","empty_column":"","experiment_path":"/Volumes/GoogleDrive/My Drive/scholieren_academie/1_sec","font_bold":"no","font_family":"serif","font_italic":"no","font_size":18,"font_underline":"no","foreground":"black","form_clicks":"no","fullscreen":"no","height":768,"keyboard_backend":"legacy","mouse_backend":"legacy","opensesame_codename":"osweb","opensesame_version":"1.3.3","practice":"no","response":"space","response_block_begin":"space","response_fb_skip":"space","response_instructie":"space","response_keyboard_resp":"space","response_time":270,"response_time_block_begin":162698,"response_time_fb_skip":1460,"response_time_instructie":5864,"response_time_keyboard_resp":270,"round_decimals":2,"rt":"0","sampler_backend":"legacy","sessionid":1591018986772,"sound_buf_size":1024,"sound_channels":2,"sound_freq":48000,"sound_sample_size":-16,"start":"experiment","subject_nr":0,"subject_parity":"even","time_ITI":291349,"time_block_begin":60852,"time_block_loop":5929,"time_fb_skip":59353,"time_feedback":59353,"time_fixation":293241,"time_instructie":35,"time_inter_trial":291348,"time_keyboard_resp":293757,"time_logger":294040,"time_reproduction":293757,"time_task_loop":35,"time_trial_loop":60852,"title":"1_sec","total_correct":0,"total_response_time":17576,"total_responses":29,"uniform_coordinates":"yes","width":1024,"studyId":"12","studyTitle":"1_sec","batchId":"12","batchTitle":"Default","componentId":"12","componentPos":1,"componentTitle":"OSWeb experiment","workerId":"105","studyResultId":"104","componentResultId":"102","groupResultId":"null","groupMemberId":null},
{"acc":0,"accuracy":0,"average_response_time":599,"avg_rt":599,"background":"white","bidi":"no","block_repeat":"50","canvas_backend":"legacy","clock_backend":"legacy","color_backend":"legacy","compensation":0,"coordinates":"uniform","correct":"undefined","count_ITI":38,"count_block_begin":1,"count_block_loop":0,"count_block_procedure":1,"count_end_of_experiment":0,"count_experiment":0,"count_fb_skip":38,"count_feedback":9,"count_fixation":38,"count_instructie":0,"count_inter_trial":38,"count_keyboard_resp":38,"count_logger":38,"count_osweb":0,"count_reproduction":38,"count_task_loop":0,"count_task_procedure":0,"count_trial_loop":1,"count_trial_procedure":38,"datetime":"Mon Jun 01 2020 15:42:56 GMT+0200 (Central European Summer Time)","delay_ITI":1207,"description":"The main experiment item","disable_garbage_collection":"yes","empty_column":"","experiment_path":"/Volumes/GoogleDrive/My Drive/scholieren_academie/1_sec","font_bold":"no","font_family":"serif","font_italic":"no","font_size":18,"font_underline":"no","foreground":"black","form_clicks":"no","fullscreen":"no","height":768,"keyboard_backend":"legacy","mouse_backend":"legacy","opensesame_codename":"osweb","opensesame_version":"1.3.3","practice":"no","response":"space","response_block_begin":"space","response_fb_skip":"space","response_instructie":"space","response_keyboard_resp":"space","response_time":385,"response_time_block_begin":162698,"response_time_fb_skip":1460,"response_time_instructie":5864,"response_time_keyboard_resp":385,"round_decimals":2,"rt":"0","sampler_backend":"legacy","sessionid":1591018986772,"sound_buf_size":1024,"sound_channels":2,"sound_freq":48000,"sound_sample_size":-16,"start":"experiment","subject_nr":0,"subject_parity":"even","time_ITI":294047,"time_block_begin":60852,"time_block_loop":5929,"time_fb_skip":59353,"time_feedback":59353,"time_fixation":295257,"time_instructie":35,"time_inter_trial":294047,"time_keyboard_resp":295773,"time_logger":296173,"time_reproduction":295773,"time_task_loop":35,"time_trial_loop":60852,"title":"1_sec","total_correct":0,"total_response_time":17961,"total_responses":30,"uniform_coordinates":"yes","width":1024,"studyId":"12","studyTitle":"1_sec","batchId":"12","batchTitle":"Default","componentId":"12","componentPos":1,"componentTitle":"OSWeb experiment","workerId":"105","studyResultId":"104","componentResultId":"102","groupResultId":"null","groupMemberId":null},
{"acc":0,"accuracy":0,"average_response_time":590,"avg_rt":590,"background":"white","bidi":"no","block_repeat":"50","canvas_backend":"legacy","clock_backend":"legacy","color_backend":"legacy","compensation":0,"coordinates":"uniform","correct":"undefined","count_ITI":39,"count_block_begin":1,"count_block_loop":0,"count_block_procedure":1,"count_end_of_experiment":0,"count_experiment":0,"count_fb_skip":39,"count_feedback":9,"count_fixation":39,"count_instructie":0,"count_inter_trial":39,"count_keyboard_resp":39,"count_logger":39,"count_osweb":0,"count_reproduction":39,"count_task_loop":0,"count_task_procedure":0,"count_trial_loop":1,"count_trial_procedure":39,"datetime":"Mon Jun 01 2020 15:42:56 GMT+0200 (Central European Summer Time)","delay_ITI":1753,"description":"The main experiment item","disable_garbage_collection":"yes","empty_column":"","experiment_path":"/Volumes/GoogleDrive/My Drive/scholieren_academie/1_sec","font_bold":"no","font_family":"serif","font_italic":"no","font_size":18,"font_underline":"no","foreground":"black","form_clicks":"no","fullscreen":"no","height":768,"keyboard_backend":"legacy","mouse_backend":"legacy","opensesame_codename":"osweb","opensesame_version":"1.3.3","practice":"no","response":"space","response_block_begin":"space","response_fb_skip":"space","response_instructie":"space","response_keyboard_resp":"space","response_time":323,"response_time_block_begin":162698,"response_time_fb_skip":1460,"response_time_instructie":5864,"response_time_keyboard_resp":323,"round_decimals":2,"rt":"0","sampler_backend":"legacy","sessionid":1591018986772,"sound_buf_size":1024,"sound_channels":2,"sound_freq":48000,"sound_sample_size":-16,"start":"experiment","subject_nr":0,"subject_parity":"even","time_ITI":296179,"time_block_begin":60852,"time_block_loop":5929,"time_fb_skip":59353,"time_feedback":59353,"time_fixation":297939,"time_instructie":35,"time_inter_trial":296179,"time_keyboard_resp":298456,"time_logger":298788,"time_reproduction":298456,"time_task_loop":35,"time_trial_loop":60852,"title":"1_sec","total_correct":0,"total_response_time":18284,"total_responses":31,"uniform_coordinates":"yes","width":1024,"studyId":"12","studyTitle":"1_sec","batchId":"12","batchTitle":"Default","componentId":"12","componentPos":1,"componentTitle":"OSWeb experiment","workerId":"105","studyResultId":"104","componentResultId":"102","groupResultId":"null","groupMemberId":null},
{"acc":0,"accuracy":0,"average_response_time":586,"avg_rt":586,"background":"white","bidi":"no","block_repeat":"50","canvas_backend":"legacy","clock_backend":"legacy","color_backend":"legacy","compensation":0,"coordinates":"uniform","correct":"undefined","count_ITI":40,"count_block_begin":1,"count_block_loop":0,"count_block_procedure":1,"count_end_of_experiment":0,"count_experiment":0,"count_fb_skip":40,"count_feedback":9,"count_fixation":40,"count_instructie":0,"count_inter_trial":40,"count_keyboard_resp":40,"count_logger":40,"count_osweb":0,"count_reproduction":40,"count_task_loop":0,"count_task_procedure":0,"count_trial_loop":1,"count_trial_procedure":40,"datetime":"Mon Jun 01 2020 15:42:56 GMT+0200 (Central European Summer Time)","delay_ITI":1650,"description":"The main experiment item","disable_garbage_collection":"yes","empty_column":"","experiment_path":"/Volumes/GoogleDrive/My Drive/scholieren_academie/1_sec","font_bold":"no","font_family":"serif","font_italic":"no","font_size":18,"font_underline":"no","foreground":"black","form_clicks":"no","fullscreen":"no","height":768,"keyboard_backend":"legacy","mouse_backend":"legacy","opensesame_codename":"osweb","opensesame_version":"1.3.3","practice":"no","response":"space","response_block_begin":"space","response_fb_skip":"space","response_instructie":"space","response_keyboard_resp":"space","response_time":455,"response_time_block_begin":162698,"response_time_fb_skip":1460,"response_time_instructie":5864,"response_time_keyboard_resp":455,"round_decimals":2,"rt":"0","sampler_backend":"legacy","sessionid":1591018986772,"sound_buf_size":1024,"sound_channels":2,"sound_freq":48000,"sound_sample_size":-16,"start":"experiment","subject_nr":0,"subject_parity":"even","time_ITI":298795,"time_block_begin":60852,"time_block_loop":5929,"time_fb_skip":59353,"time_feedback":59353,"time_fixation":300454,"time_instructie":35,"time_inter_trial":298795,"time_keyboard_resp":300972,"time_logger":301438,"time_reproduction":300972,"time_task_loop":35,"time_trial_loop":60852,"title":"1_sec","total_correct":0,"total_response_time":18739,"total_responses":32,"uniform_coordinates":"yes","width":1024,"studyId":"12","studyTitle":"1_sec","batchId":"12","batchTitle":"Default","componentId":"12","componentPos":1,"componentTitle":"OSWeb experiment","workerId":"105","studyResultId":"104","componentResultId":"102","groupResultId":"null","groupMemberId":null},
{"acc":0,"accuracy":0,"average_response_time":584,"avg_rt":584,"background":"white","bidi":"no","block_repeat":"50","canvas_backend":"legacy","clock_backend":"legacy","color_backend":"legacy","compensation":0,"coordinates":"uniform","correct":"undefined","count_ITI":41,"count_block_begin":1,"count_block_loop":0,"count_block_procedure":1,"count_end_of_experiment":0,"count_experiment":0,"count_fb_skip":41,"count_feedback":9,"count_fixation":41,"count_instructie":0,"count_inter_trial":41,"count_keyboard_resp":41,"count_logger":41,"count_osweb":0,"count_reproduction":41,"count_task_loop":0,"count_task_procedure":0,"count_trial_loop":1,"count_trial_procedure":41,"datetime":"Mon Jun 01 2020 15:42:56 GMT+0200 (Central European Summer Time)","delay_ITI":1314,"description":"The main experiment item","disable_garbage_collection":"yes","empty_column":"","experiment_path":"/Volumes/GoogleDrive/My Drive/scholieren_academie/1_sec","font_bold":"no","font_family":"serif","font_italic":"no","font_size":18,"font_underline":"no","foreground":"black","form_clicks":"no","fullscreen":"no","height":768,"keyboard_backend":"legacy","mouse_backend":"legacy","opensesame_codename":"osweb","opensesame_version":"1.3.3","practice":"no","response":"space","response_block_begin":"space","response_fb_skip":"space","response_instructie":"space","response_keyboard_resp":"space","response_time":522,"response_time_block_begin":162698,"response_time_fb_skip":1460,"response_time_instructie":5864,"response_time_keyboard_resp":522,"round_decimals":2,"rt":"0","sampler_backend":"legacy","sessionid":1591018986772,"sound_buf_size":1024,"sound_channels":2,"sound_freq":48000,"sound_sample_size":-16,"start":"experiment","subject_nr":0,"subject_parity":"even","time_ITI":301445,"time_block_begin":60852,"time_block_loop":5929,"time_fb_skip":59353,"time_feedback":59353,"time_fixation":302771,"time_instructie":35,"time_inter_trial":301445,"time_keyboard_resp":303288,"time_logger":303820,"time_reproduction":303288,"time_task_loop":35,"time_trial_loop":60852,"title":"1_sec","total_correct":0,"total_response_time":19261,"total_responses":33,"uniform_coordinates":"yes","width":1024,"studyId":"12","studyTitle":"1_sec","batchId":"12","batchTitle":"Default","componentId":"12","componentPos":1,"componentTitle":"OSWeb experiment","workerId":"105","studyResultId":"104","componentResultId":"102","groupResultId":"null","groupMemberId":null},
